PacketCounter,SampleTimeFine,Euler_X,Euler_Y,Euler_Z,FreeAcc_X,FreeAcc_Y,FreeAcc_Z,Gyr_X,Gyr_Y,Gyr_Z
1, 2393300685, -171.71337890625, -54.44260025024414, 125.62512969970703, -0.070215255, 0.08552455, -0.035139084, 0.16543881595134735, 0.31657078862190247, 0.5119487047195435
2, 2393350686, -171.72315979003906, -54.49504089355469, 125.63642883300781, -0.018114608, 0.052601203, -0.086131096, 0.29977741837501526, 1.3225479125976562, 0.2498112916946411
3, 2393400687, -171.73362731933594, -54.50032043457031, 125.65668487548828, -0.07342803, 0.052184686, -0.042998314, 0.19783887267112732, 0.3981301486492157, 0.44809627532958984
4, 2393450688, -171.73883056640625, -54.53350830078125, 125.66207122802734, -0.029035898, 0.037002012, -0.10028362, 0.270600289106369, 0.9536268711090088, 0.3908604383468628
5, 2393500689, -171.73712158203125, -54.586273193359375, 125.65663146972656, 0.00591907, 0.040819835, -0.12080288, 0.27140286564826965, 1.3554645776748657, 0.4321097135543823
6, 2393550690, -171.7737274169922, -54.55815887451172, 125.68203735351562, -0.05594708, 0.06686871, -0.047179222, -0.047477398067712784, -0.2904137969017029, 0.3489196300506592
7, 2393600691, -171.78619384765625, -54.5633430480957, 125.69062042236328, -0.033572093, 0.05853983, -0.09034538, 0.09283960610628128, 0.4027916193008423, 0.493622750043869
8, 2393650692, -171.77523803710938, -54.5739860534668, 125.67837524414062, -0.042660575, 0.061424937, -0.09098339, 0.38520002365112305, 0.52866530418396, 0.6023401618003845
9, 2393700693, -171.7650604248047, -54.6092414855957, 125.68030548095703, -0.03704414, 0.071054436, -0.080506325, 0.4303659200668335, 1.0105235576629639, 0.4893989562988281
10, 2393750694, -171.74131774902344, -54.64316177368164, 125.6563949584961, -0.037649862, 0.056073476, -0.047200203, 0.44176575541496277, 1.009979248046875, 0.6758402585983276
11, 2393800695, -171.72373962402344, -54.65946578979492, 125.66064453125, -0.021759657, 0.07890477, -0.0987587, 0.36270782351493835, 0.6579880714416504, 0.6943026781082153
12, 2393850696, -171.7179412841797, -54.647499084472656, 125.64854431152344, -0.061662532, 0.07912951, -0.066441536, 0.12424080818891525, 0.09808170050382614, 0.778419017791748
13, 2393900697, -171.71336364746094, -54.63273239135742, 125.64379119873047, -0.059481043, 0.059691146, -0.05772972, 0.13038784265518188, 0.03965059295296669, 0.7643917798995972
14, 2393950698, -171.69326782226562, -54.66233825683594, 125.63224792480469, -0.045459405, 0.06959434, -0.03875637, 0.4189319908618927, 0.9203220009803772, 0.6519349813461304
15, 2394000699, -171.6577606201172, -54.73884582519531, 125.61961364746094, -0.056660756, 0.043991707, -0.07536411, 0.8135766386985779, 1.8388357162475586, 0.4557630121707916
16, 2394050700, -171.61181640625, -54.85698699951172, 125.59986114501953, -0.0044901515, 0.05290898, -0.06917572, 0.8931300044059753, 2.6763079166412354, 0.42259472608566284
17, 2394100701, -171.56715393066406, -54.944580078125, 125.57064056396484, -0.037670873, 0.053490896, -0.07267189, 0.6662482619285583, 2.0924489498138428, 0.6494677066802979
18, 2394150702, -171.50489807128906, -54.990325927734375, 125.5338134765625, -0.052822817, 0.07375212, -0.06877041, 0.7836247682571411, 1.2889761924743652, 0.9328017234802246
19, 2394200703, -171.47882080078125, -54.97450256347656, 125.50714874267578, -0.05559326, 0.062114585, -0.12798786, 0.2974936068058014, 0.04675811156630516, 0.949648380279541
20, 2394250704, -171.4532012939453, -54.93320846557617, 125.46623229980469, -0.042880066, 0.08691111, -0.06742191, 0.1950833797454834, -0.4471529424190521, 1.0902899503707886
21, 2394300705, -171.4119415283203, -54.92402267456055, 125.42314910888672, -0.04476808, 0.078000546, -0.038708687, 0.3866855800151825, 0.20124110579490662, 1.0792274475097656
22, 2394350706, -171.34095764160156, -54.98889923095703, 125.3863754272461, -0.044809207, 0.083112285, -0.043141365, 0.9491662383079529, 1.6685715913772583, 0.879247784614563
23, 2394400707, -171.28077697753906, -55.03086853027344, 125.34256744384766, -0.019392878, 0.06511838, -0.10134983, 0.732222318649292, 1.2167035341262817, 0.9462164044380188
24, 2394450708, -171.22425842285156, -55.06735610961914, 125.29557037353516, -0.068982355, 0.07212752, -0.082365036, 0.629365861415863, 1.1118279695510864, 0.9824540019035339
25, 2394500709, -171.21444702148438, -55.068275451660156, 125.27265167236328, -0.039365772, 0.06359156, -0.064126015, 0.2470579445362091, 0.3497350215911865, 0.7091153264045715
26, 2394550710, -171.25051879882812, -55.04405975341797, 125.28564453125, -0.046440627, 0.025949966, -0.072714806, -0.29808908700942993, -0.18613600730895996, 0.5281530022621155
27, 2394600711, -171.29989624023438, -54.941593170166016, 125.30946350097656, -0.12576762, 0.08897269, -0.18742943, -0.5064783096313477, -1.7390979528427124, 0.7244743704795837
28, 2394650712, -171.33860778808594, -54.86980438232422, 125.32511901855469, -0.037990943, 0.030051876, -0.032683372, -0.34113988280296326, -1.1282267570495605, 0.6634138226509094
29, 2394700713, -171.36561584472656, -54.83261489868164, 125.34932708740234, -0.008275568, 0.039381977, 0.037661552, -0.014834020286798477, -0.45290932059288025, 0.49378079175949097
30, 2394750714, -171.39599609375, -54.804100036621094, 125.36422729492188, -0.061562844, 0.09709459, -0.19830704, -0.1656842678785324, -0.27315086126327515, 0.5251606106758118
31, 2394800715, -171.40264892578125, -54.74104690551758, 125.35652923583984, -0.0747966, 0.0961432, -0.0540514, -0.04955631121993065, -0.9187702536582947, 0.8783726692199707
32, 2394850716, -171.3987579345703, -54.7065544128418, 125.34749603271484, -0.033439774, 0.0172666, 0.0063552856, 0.10239742696285248, -0.34662947058677673, 0.8343272805213928
33, 2394900717, -171.3997039794922, -54.648563385009766, 125.33189392089844, -0.010152182, 0.11906524, -0.059854507, 0.013307931832969189, -0.8125073313713074, 0.8998659253120422
34, 2394950718, -171.42164611816406, -54.62064743041992, 125.33147430419922, -0.04973163, 0.08706076, -0.16977692, -0.10949854552745819, -0.24933961033821106, 0.6003978848457336
35, 2395000719, -171.47140502929688, -54.64073181152344, 125.36698913574219, -0.087642334, 0.116280824, -0.027499199, -0.07631303369998932, 0.6371862888336182, 0.043996211141347885
36, 2395050720, -171.53260803222656, -54.716670989990234, 125.43414306640625, -0.08341704, 0.0907514, 0.03868103, -0.021766526624560356, 1.7143797874450684, -0.31811830401420593
37, 2395100721, -171.6392059326172, -54.799739837646484, 125.52436828613281, -0.054513693, 0.057764575, -0.06803894, -0.4346475303173065, 1.805893898010254, -0.6816991567611694
38, 2395150722, -171.68251037597656, -54.88154220581055, 125.55878448486328, -0.036282636, 0.059583526, -0.05044079, -0.09340952336788177, 1.8760918378829956, -0.02814408764243126
39, 2395200723, -171.71975708007812, -54.940120697021484, 125.56730651855469, -0.042670634, 0.0599388, -0.06942654, -0.2380593866109848, 1.444351315498352, 0.22510574758052826
40, 2395250724, -171.79110717773438, -54.976078033447266, 125.60071563720703, -0.019613262, 0.059520718, -0.09183025, -0.5615497827529907, 0.961310625076294, 0.043569326400756836
41, 2395300725, -171.87567138671875, -54.90389633178711, 125.6357421875, -0.054275874, 0.030180285, -0.07209015, -0.8751049041748047, -1.173296570777893, 0.3851146996021271
42, 2395350726, -171.92172241210938, -54.74919891357422, 125.62081146240234, -0.0023064301, 0.04222942, -0.113713264, -1.0103830099105835, -2.7172350883483887, 1.24665367603302
43, 2395400727, -171.9292449951172, -54.47953796386719, 125.54287719726562, -0.0023008424, 0.08016795, -0.17414093, -1.2417430877685547, -4.894420623779297, 2.274014711380005
44, 2395450728, -171.93753051757812, -54.11951446533203, 125.44514465332031, -0.026248915, 0.0677974, -0.1605587, -1.7969002723693848, -6.626230239868164, 2.921506881713867
45, 2395500729, -171.9656219482422, -53.78873062133789, 125.38316345214844, -0.11207901, 0.071062595, -0.13088131, -1.6819113492965698, -6.098148345947266, 2.4858884811401367
46, 2395550730, -171.99102783203125, -53.6419792175293, 125.2908706665039, -0.17447868, 0.16038485, 0.19365692, -1.5249378681182861, -2.4651122093200684, 1.9028064012527466
47, 2395600731, -171.60653686523438, -54.212684631347656, 125.07786560058594, -0.17778891, -0.05480448, 0.32914734, 4.380921363830566, 11.978546142578125, 1.5085275173187256
48, 2395650732, -170.93663024902344, -54.652530670166016, 124.62508392333984, -0.018865388, -0.19626449, -0.5406523, 6.170483112335205, 9.817851066589355, 4.522648334503174
49, 2395700733, -170.30128479003906, -54.29806900024414, 123.9674301147461, 0.032298293, 0.20601726, -0.08139801, 1.9882467985153198, -5.405555248260498, 9.452774047851562
50, 2395750734, -169.5160675048828, -53.9721565246582, 123.1933364868164, -0.121951796, 0.25022197, 7.05719E-5, 3.42059588432312, -4.517981052398682, 10.634893417358398
51, 2395800735, -168.82838439941406, -53.992469787597656, 122.57170867919922, -0.31178537, 0.024853636, -0.07919788, 3.8297886848449707, 2.099693775177002, 7.759486675262451
52, 2395850736, -168.53131103515625, -53.53996276855469, 122.32467651367188, 0.093170255, 0.2160417, 0.56879234, 2.1709110736846924, -7.9848761558532715, 5.237045764923096
53, 2395900737, -169.34234619140625, -53.08504104614258, 122.84706115722656, 0.21181004, -0.15865955, -0.7201834, -7.62686014175415, -9.810819625854492, -3.7826907634735107
54, 2395950738, -170.29721069335938, -51.41044616699219, 123.15393829345703, -0.5909649, 0.48950657, 0.9181967, -14.033145904541016, -33.31009292602539, 2.822620391845703
55, 2396000739, -170.3529815673828, -50.951602935791016, 123.02442932128906, 0.18017782, -0.020882368, -0.56745243, -2.917205333709717, -8.45616340637207, 3.7388222217559814
56, 2396050740, -170.55079650878906, -50.46071243286133, 122.96507263183594, -0.05134249, 0.5141705, 0.78083324, -4.663866996765137, -9.239651679992676, 2.9690771102905273
57, 2396100741, -170.55990600585938, -49.82919692993164, 122.69770050048828, 0.026809039, 0.057564534, 0.16244125, -4.073177337646484, -11.579329490661621, 6.051088809967041
58, 2396150742, -171.9877166748047, -48.82733154296875, 123.43695831298828, -0.90686, 0.6006745, 1.024375, -17.12967300415039, -20.948837280273438, -5.884502410888672
59, 2396200743, -172.41494750976562, -49.31122970581055, 123.82112884521484, 0.5370717, -0.38495928, -1.2460594, -2.526249885559082, 9.221467971801758, -5.7033209800720215
60, 2396250744, -172.3483428955078, -48.16841506958008, 123.50772857666016, 0.08651158, 0.04961574, -0.18438244, -3.1672308444976807, -21.787912368774414, 7.72510290145874
61, 2396300745, -172.3843536376953, -46.943546295166016, 123.1680679321289, -0.45482516, 0.5319495, 0.5948372, -5.522470951080322, -23.351232528686523, 8.396455764770508
62, 2396350746, -172.0724639892578, -47.34819793701172, 122.79251098632812, -0.003311121, 0.034686975, -0.21936798, 0.9427616596221924, 9.02712345123291, 4.56484842300415
63, 2396400747, -171.43551635742188, -48.00151824951172, 122.2126693725586, 0.37446734, 0.10460127, -0.19144535, 4.377283573150635, 14.36816692352295, 6.451715469360352
64, 2396450748, -170.75677490234375, -47.571250915527344, 121.46687316894531, 0.8048145, 0.044425435, -0.014469147, 2.740492105484009, -6.631547927856445, 11.831172943115234
65, 2396500749, -170.5410919189453, -45.37741470336914, 120.34767150878906, -0.6900793, -0.55582565, -0.8194313, -11.70313835144043, -40.465492248535156, 22.94024085998535
66, 2396550750, -169.86671447753906, -44.452659606933594, 119.48067474365234, -0.79764664, 0.5738164, 0.51044273, 1.4537019729614258, -15.811910629272461, 15.845617294311523
67, 2396600751, -169.367431640625, -45.982704162597656, 119.60879516601562, -0.44481426, -0.8792179, -1.362792, 12.012160301208496, 30.09190559387207, -6.69124698638916
68, 2396650752, -169.19815063476562, -47.91389846801758, 119.61478424072266, -1.0627029, 0.2283956, 1.3940115, 3.67954421043396, 38.2503547668457, -6.664950370788574
69, 2396700753, -169.77833557128906, -51.41563415527344, 121.31831359863281, 0.5973799, 0.30397606, -0.021927834, 14.581604957580566, 65.14424896240234, -33.86494064331055
70, 2396750754, -172.9345245361328, -50.5951042175293, 124.71263122558594, 0.477752, -0.61299235, 0.59558964, -10.150605201721191, -22.324222564697266, -39.1530647277832
71, 2396800755, -174.21359252929688, -50.914363861083984, 125.29458618164062, 0.32414004, -0.056136955, -1.1930828, -16.336071014404297, 5.840676784515381, -7.4494099617004395
72, 2396850756, -174.6835174560547, -48.91753387451172, 125.4288558959961, -0.14286703, 0.25533104, 0.34975052, -7.129487037658691, -39.5947380065918, 2.7409985065460205
73, 2396900757, -174.80128479003906, -48.327877044677734, 125.41870880126953, -0.2328824, 0.16758978, -0.12125683, -2.2965810298919678, -11.410049438476562, 1.8122024536132812
74, 2396950758, -174.82322692871094, -47.981605529785156, 125.44212341308594, 0.008223936, -0.013953914, -0.24682903, 0.1233103796839714, -6.605216979980469, 0.9122381806373596
75, 2397000759, -174.6983642578125, -48.609439849853516, 125.42090606689453, 0.26767933, -0.25987884, -0.56836796, 2.392530679702759, 12.850058555603027, -0.26804256439208984
76, 2397050760, -174.4089813232422, -47.684776306152344, 125.09101104736328, 0.07848501, 0.02082515, 0.24284935, 1.087194561958313, -17.671249389648438, 6.733962059020996
77, 2397100761, -173.8303680419922, -46.523677825927734, 124.55349731445312, -0.019981835, 0.2101699, -0.072081566, 3.9080584049224854, -22.026931762695312, 10.254998207092285
78, 2397150762, -173.46197509765625, -45.45880889892578, 124.10562896728516, -0.17795275, 0.39272478, 0.390563, 1.1367690563201904, -20.155324935913086, 9.139202117919922
79, 2397200763, -173.50665283203125, -44.97071838378906, 124.08488464355469, -0.34731364, 0.3204809, 0.22903252, -0.9762179255485535, -9.343803405761719, 1.9955806732177734
80, 2397250764, -173.49061584472656, -45.6385498046875, 124.15437316894531, -0.33439863, -0.09019049, -0.1450386, 1.519945502281189, 13.480663299560547, -1.8855282068252563
81, 2397300765, -173.45201110839844, -46.19899368286133, 124.24010467529297, -0.29918438, 0.06264554, 0.13597012, 2.2174224853515625, 11.320533752441406, -1.863028645515442
82, 2397350766, -173.07688903808594, -46.35552215576172, 123.95343017578125, 0.17918721, -0.40982217, -0.8375311, 3.5721676349639893, 3.894670009613037, 4.165772438049316
83, 2397400767, -172.67164611816406, -45.482078552246094, 123.5935287475586, -0.12228885, -0.14885919, 0.046040535, 3.146265983581543, -16.388954162597656, 7.732295036315918
84, 2397450768, -172.3756561279297, -44.38730239868164, 123.23188781738281, -0.38344854, 0.64756966, 0.91875076, 1.0222254991531372, -20.71943473815918, 8.522937774658203
85, 2397500769, -172.52488708496094, -44.51526641845703, 123.34423065185547, -0.05626961, -0.06538268, 0.06550121, -1.199865698814392, 2.648944854736328, -1.3280187845230103
86, 2397550770, -172.78811645507812, -44.750240325927734, 123.56088256835938, 0.23481175, 0.07650424, -0.27534103, -2.0079903602600098, 4.588675022125244, -3.061211347579956
87, 2397600771, -172.9833984375, -44.62859344482422, 123.67431640625, -0.17247981, 0.17986311, 0.0069122314, -2.097309112548828, -2.291201591491699, -0.7018478512763977
88, 2397650772, -172.89820861816406, -44.618080139160156, 123.66065979003906, 0.07635359, 0.056119185, -0.074297905, 1.723706841468811, 0.13832351565361023, 0.8159586787223816
89, 2397700773, -172.77328491210938, -45.04190444946289, 123.72599792480469, -0.0031019128, 0.10881169, -0.09382343, 3.631166696548462, 8.617677688598633, -1.3792816400527954
90, 2397750774, -172.7581787109375, -45.2762451171875, 123.78858947753906, 0.10721671, 0.08491793, -0.124812126, 1.402938723564148, 4.860681056976318, -0.8683949708938599
91, 2397800775, -173.03440856933594, -45.27973556518555, 123.9975814819336, 0.22379346, 0.0663126, -0.2198515, -2.3422136306762695, 0.029405519366264343, -2.3295865058898926
92, 2397850776, -173.20864868164062, -44.858543395996094, 124.01226043701172, -0.25693843, 0.057648014, 0.106476784, -3.0636579990386963, -8.06345272064209, 1.4002817869186401
93, 2397900777, -173.14080810546875, -44.447811126708984, 123.81594848632812, 0.19155507, -0.08807193, -0.41295528, -1.1901395320892334, -7.500217914581299, 4.3470587730407715
94, 2397950778, -173.13934326171875, -44.15638732910156, 123.72796630859375, 0.017611703, 0.1581942, 0.046905518, -0.9885573983192444, -5.311418533325195, 2.5437047481536865
95, 2398000779, -173.4039306640625, -44.296939849853516, 123.90447235107422, -0.13838023, 0.13087578, 0.03636074, -2.6167314052581787, 2.8194665908813477, -2.2442245483398438
96, 2398050780, -173.84535217285156, -45.12266159057617, 124.34799194335938, -0.18176185, 0.037125614, -0.030088425, -2.3760974407196045, 16.036027908325195, -7.500699520111084
97, 2398100781, -174.01931762695312, -45.48598861694336, 124.55665588378906, 0.21651588, -0.15449104, -0.48037243, -0.2991953194141388, 7.239612102508545, -3.0895802974700928
98, 2398150782, -174.1015167236328, -45.12120056152344, 124.52134704589844, 0.04230318, -0.015304491, -0.26061058, -1.9337109327316284, -6.8799543380737305, 1.8463947772979736
99, 2398200783, -174.10931396484375, -44.575775146484375, 124.41596984863281, 0.05343949, 0.13156241, 0.05756378, -1.4290530681610107, -10.371509552001953, 3.203202247619629
100, 2398250784, -174.1072540283203, -44.345741271972656, 124.34220123291016, -0.16669463, 0.092278555, 0.02507019, -0.780035138130188, -4.141721248626709, 2.116974115371704
101, 2398300785, -174.28721618652344, -44.09440231323242, 124.4051513671875, 0.17675963, -0.031131666, -0.27751732, -2.508159875869751, -4.767228126525879, 0.20697855949401855
102, 2398350786, -174.37164306640625, -43.44679260253906, 124.3488540649414, -0.13698281, 0.06866765, -0.053520203, -2.2545056343078613, -12.481338500976562, 2.6854050159454346
103, 2398400787, -174.53726196289062, -42.82309341430664, 124.33833312988281, -0.18199363, 0.104727104, 0.1347084, -3.243757724761963, -12.07395076751709, 1.9550676345825195
104, 2398450788, -174.48843383789062, -43.0702018737793, 124.30328369140625, 0.025165547, 0.11285058, 0.01454258, 0.7104051113128662, 5.294553279876709, 0.6348134279251099
105, 2398500789, -174.6520538330078, -43.12406539916992, 124.36946868896484, -0.069773816, -0.19912992, -0.5421047, -2.1543612480163574, 1.307603120803833, -0.4675043523311615
106, 2398550790, -174.60552978515625, -42.69287872314453, 124.26776885986328, -0.054020848, -0.06288548, -0.35497475, -0.24268943071365356, -8.119235038757324, 2.887101888656616
107, 2398600791, -174.6883544921875, -42.00428771972656, 124.19800567626953, -0.06005793, 0.1249576, 0.07042599, -2.384082794189453, -13.287956237792969, 2.908341646194458
108, 2398650792, -175.08517456054688, -41.19127655029297, 124.3363037109375, 0.39998403, 0.029187998, -0.18849182, -5.887115478515625, -16.052112579345703, -0.014287748374044895
109, 2398700793, -175.82138061523438, -39.252017974853516, 124.6642074584961, -0.8483778, 1.2473772, 1.7345409, -10.275019645690918, -38.73058319091797, -1.3204020261764526
110, 2398750794, -176.71490478515625, -39.640132904052734, 125.08629608154297, 1.1206551, -1.1353853, -1.6124573, -12.293612480163574, 7.648706436157227, -6.413675785064697
111, 2398800795, -177.2041778564453, -38.16310119628906, 125.3783950805664, -0.08853639, 0.30617273, 1.5302992, -5.9020771980285645, -29.409292221069336, -2.3763375282287598
112, 2398850796, -176.94500732421875, -35.1626091003418, 125.26959228515625, -0.6307992, 0.8351726, 2.9264908, 4.099404811859131, -59.51057052612305, 5.401822566986084
113, 2398900797, -176.0821075439453, -38.1713752746582, 124.61506652832031, 0.3651207, -0.2889266, 1.6559458, 9.64070987701416, 61.02720260620117, 7.422769546508789
114, 2398950798, -175.12181091308594, -38.43544387817383, 123.98528289794922, 0.5824181, -1.6156378, 0.035850525, 11.621383666992188, 6.349791526794434, 10.044976234436035
115, 2399000799, -173.56983947753906, -36.96435546875, 122.5766372680664, -0.20366165, 0.26657844, 1.9739857, 14.017492294311523, -26.74716567993164, 25.678754806518555
116, 2399050800, -172.40274047851562, -39.35674285888672, 121.71036529541016, 0.6039821, -1.0853963, 0.1924448, 12.840534210205078, 49.48424530029297, 8.276177406311035
117, 2399100801, -171.4951171875, -41.15864181518555, 121.15625, 0.67032295, -1.2531595, -1.5739202, 11.200847625732422, 37.203521728515625, 3.921196699142456
118, 2399150802, -170.78460693359375, -42.44245529174805, 120.74961853027344, 0.7174407, -0.9887239, -2.4706745, 8.997359275817871, 26.64564323425293, 2.6297457218170166
119, 2399200803, -169.8651885986328, -44.48043441772461, 119.98143005371094, 0.47044203, 0.15328854, -1.7685299, 8.024577140808105, 42.398006439208984, 4.737909317016602
120, 2399250804, -170.84812927246094, -46.44812774658203, 120.7677993774414, 0.85595137, -0.65806395, -3.0087013, -8.232282638549805, 37.295955657958984, -16.873214721679688
121, 2399300805, -171.29981994628906, -46.483863830566406, 120.91278839111328, 0.26935816, 0.6976029, -0.723012, -6.720124244689941, 0.7462206482887268, -1.4889836311340332
122, 2399350806, -171.93223571777344, -46.24992752075195, 121.30567932128906, -0.06305412, 0.78041506, -0.6542139, -6.749599933624268, -5.07012414932251, -4.084933280944824
123, 2399400807, -172.0067596435547, -46.7044792175293, 121.16731262207031, -0.12442117, 0.08961037, -0.82170105, -3.283447265625, 9.613560676574707, 1.2144341468811035
124, 2399450808, -171.7588653564453, -46.48194122314453, 120.8659896850586, -0.123269185, 0.89796644, 0.4602461, 0.7918280959129333, -3.4780848026275635, 5.326143264770508
125, 2399500809, -171.8199462890625, -46.700172424316406, 120.87652587890625, -0.5480564, 0.21996245, -0.3913555, -0.855336606502533, 4.639318466186523, -0.1683609038591385
126, 2399550810, -171.50912475585938, -47.79706954956055, 120.583251953125, 0.16712667, -0.3039661, -1.078186, 2.120939254760742, 22.620195388793945, 1.35722017288208
127, 2399600811, -171.47218322753906, -48.07619094848633, 120.53562927246094, 0.010366978, 0.3766161, 0.12782001, 0.24357062578201294, 5.9526047706604, 0.40212196111679077
128, 2399650812, -171.8502197265625, -48.34850311279297, 120.79936981201172, -0.08977129, -0.12333356, -0.35418224, -3.4143834114074707, 5.215196132659912, -3.6706814765930176
129, 2399700813, -171.84097290039062, -48.62637710571289, 120.7967758178711, -0.07961621, 0.106735036, -0.18798065, 0.3577052354812622, 5.842385292053223, -0.15755243599414825
130, 2399750814, -171.96900939941406, -49.21794891357422, 120.95082092285156, -0.021505076, -0.13475451, -0.46207047, -0.026596777141094208, 11.76339054107666, -3.0730576515197754
131, 2399800815, -171.80999755859375, -49.30249786376953, 120.9067153930664, -0.22754624, -0.02256922, 0.4177704, 2.724287271499634, 2.0905561447143555, 0.927769124507904
132, 2399850816, -171.81781005859375, -49.29106140136719, 121.00169372558594, 0.11211902, -0.054371987, -0.18148327, 1.4950066804885864, -0.0673571228981018, -0.597403347492218
133, 2399900817, -172.641357421875, -49.37550735473633, 121.6998062133789, -0.12562121, -0.25225213, -0.90070057, -5.669406890869141, 0.7799113988876343, -8.646940231323242
134, 2399950818, -173.06610107421875, -49.46470260620117, 122.12491607666016, -0.11696143, -0.3490405, -0.7554445, -1.8258453607559204, 1.4187036752700806, -5.114343643188477
135, 2400000819, -173.4777069091797, -49.12210464477539, 122.58109283447266, 0.68739265, -0.16668501, -0.38771534, -1.105621576309204, -7.163784980773926, -4.510969638824463
136, 2400050820, -174.07821655273438, -48.74129867553711, 123.147216796875, -0.40330476, -0.25064185, -0.06891632, -3.2643795013427734, -8.038052558898926, -5.973465919494629
137, 2400100821, -174.44320678710938, -49.283546447753906, 123.57465362548828, -0.04084565, -0.49788472, -1.1812782, -0.6352619528770447, 10.568411827087402, -6.06887674331665
138, 2400150822, -174.61329650878906, -49.241859436035156, 123.92027282714844, 0.27879128, -0.18152213, -0.38265038, 2.045616865158081, -0.9191506505012512, -3.815884590148926
139, 2400200823, -174.99427795410156, -48.98274230957031, 124.4011459350586, -0.40046212, 0.09485756, 0.0026779175, -0.13996081054210663, -5.3883867263793945, -5.205260276794434
140, 2400250824, -174.99020385742188, -49.459449768066406, 124.54234313964844, -0.24724087, -0.29960236, -0.7631769, 2.431802988052368, 9.678794860839844, -2.0750491619110107
141, 2400300825, -174.87440490722656, -50.30139923095703, 124.6644058227539, 0.054903276, 0.19235748, 0.38665676, 4.390800952911377, 16.97829818725586, -2.45947527885437
142, 2400350826, -175.4364776611328, -50.00092315673828, 125.24092102050781, -0.35738805, 0.23104724, 0.34015656, -2.177964448928833, -6.266777515411377, -6.260003566741943
143, 2400400827, -175.4866485595703, -51.07307052612305, 125.48152160644531, 0.60082084, -0.93342966, -1.8869934, 2.9221420288085938, 21.477020263671875, -4.150701522827148
144, 2400450828, -175.62464904785156, -50.05769348144531, 125.73045349121094, -0.7795689, 0.7008984, 2.0911636, 1.2945231199264526, -20.144739151000977, -0.9842105507850647
145, 2400500829, -175.3982696533203, -51.02197265625, 125.69691467285156, 0.08064504, -0.32683674, -1.4190397, 4.221267223358154, 19.60323143005371, -0.48987898230552673
146, 2400550830, -175.3877410888672, -52.74760055541992, 125.81246948242188, -0.3088491, -0.22988118, -1.8452306, 2.235820770263672, 34.62948989868164, -3.598586320877075
147, 2400600831, -175.72128295898438, -52.7914924621582, 126.099609375, -0.51250446, 0.98506105, 1.1955643, -1.8866361379623413, 0.9477662444114685, -2.9374911785125732
148, 2400650832, -175.25694274902344, -53.53145980834961, 125.9178695678711, -0.17304932, -0.050896246, -0.7410803, 6.588021755218506, 15.266435623168945, 1.6026027202606201
149, 2400700833, -175.64291381835938, -53.729835510253906, 126.16971588134766, -0.37505743, 0.410518, -0.50522614, -3.455148458480835, 4.059491157531738, -2.696657419204712
150, 2400750834, -175.4957733154297, -54.983131408691406, 126.10303497314453, 0.5160371, -0.25071213, -2.0064764, 2.0712969303131104, 25.38825798034668, -0.5676873326301575
151, 2400800835, -175.563720703125, -54.106590270996094, 126.10102844238281, -0.51177627, 0.30407664, 0.4398861, -1.1816445589065552, -17.137052536010742, 1.9837651252746582
152, 2400850836, -175.1956787109375, -53.48535919189453, 125.85246276855469, 0.0908502, 0.21760361, -0.3321705, 3.5605409145355225, -11.812231063842773, 4.521708965301514
153, 2400900837, -175.21749877929688, -53.27598571777344, 125.8238754272461, -0.5140418, 0.5427717, 0.060920715, -0.6876671314239502, -3.8099119663238525, 1.285130500793457
154, 2400950838, -175.10850524902344, -52.752323150634766, 125.73056030273438, -0.07424117, 0.19481166, -0.3633566, 0.9018177390098572, -10.010631561279297, 2.595416307449341
155, 2401000839, -174.89097595214844, -53.49060821533203, 125.62189483642578, -0.5364552, -0.009854016, -0.3897314, 2.819753408432007, 15.152911186218262, 0.6077896356582642
156, 2401050840, -175.11190795898438, -53.05618667602539, 125.7204818725586, -0.7486528, 0.6261332, 0.7303467, -2.6262636184692383, -8.430033683776855, 0.17673444747924805
157, 2401100841, -174.73110961914062, -53.74098587036133, 125.40172576904297, 0.51924497, -0.56643593, -1.4599648, 2.7088241577148438, 14.304356575012207, 3.1678624153137207
158, 2401150842, -175.289306640625, -52.25084686279297, 125.65929412841797, -0.84649765, 0.9040422, 3.8496656, -6.8401265144348145, -29.62996482849121, 0.09755949676036835
159, 2401200843, -175.77545166015625, -53.05391311645508, 125.90613555908203, 1.1235726, -0.46552575, 1.3527536, -5.586319923400879, 16.105989456176758, -3.642984628677368
160, 2401250844, -176.673583984375, -53.2952880859375, 126.43781280517578, -0.43777874, 1.0955784, 7.305523, -9.242892265319824, 4.727555274963379, -6.08100700378418
161, 2401300845, -177.52581787109375, -53.697139739990234, 127.00947570800781, 0.61771876, -0.0020552017, 4.3484907, -7.6349334716796875, 8.011100769042969, -6.604524612426758
162, 2401350846, -178.2104949951172, -52.89735412597656, 127.55885314941406, 0.5901462, 0.6552837, 4.402521, -4.672590732574463, -15.897565841674805, -5.3685197830200195
163, 2401400847, -178.96630859375, -50.86289978027344, 128.17874145507812, -0.45759538, 0.937572, 4.9957056, -5.143875598907471, -40.53322982788086, -6.050375461578369
164, 2401450848, -179.62130737304688, -51.69801330566406, 128.83827209472656, 0.14359166, -1.0211289, 0.39430714, -2.593698740005493, 16.925151824951172, -7.8569111824035645
165, 2401500849, 179.84033203125, -50.46910858154297, 129.4465789794922, -1.6555068, 1.3263212, 5.0166445, -1.0874645709991455, -24.26723861694336, -6.997726917266846
166, 2401550850, 179.26492309570312, -52.424293518066406, 130.20668029785156, 0.29361087, -0.9488459, -2.2116308, 0.5988708734512329, 39.49501419067383, -8.574140548706055
167, 2401600851, 179.4002227783203, -53.30723190307617, 130.50674438476562, -1.2062703, 0.9922642, 0.060188293, 7.700401306152344, 18.017366409301758, -2.820880651473999
168, 2401650852, -178.75619506835938, -54.70939636230469, 129.5336456298828, -0.7231639, -0.37387738, -6.346697, 21.339244842529297, 28.4204158782959, 11.871461868286133
169, 2401700853, -175.79403686523438, -56.37525177001953, 127.6521224975586, -0.12203897, -0.09011266, -8.149489, 28.418989181518555, 34.59950637817383, 20.27716827392578
170, 2401750854, -174.20419311523438, -57.52177047729492, 126.4272232055664, 0.57510185, -0.44983804, -7.8930206, 11.47161865234375, 24.31620979309082, 11.904012680053711
171, 2401800855, -175.11557006835938, -56.748538970947266, 126.79783630371094, -0.22855452, -0.08578651, -2.3373008, -11.79053020477295, -15.460470199584961, -1.9721035957336426
172, 2401850856, -177.16952514648438, -55.83034133911133, 128.0063018798828, 0.78194714, -1.6893431, -1.1602879, -20.75697135925293, -18.912240982055664, -11.556676864624023
173, 2401900857, -178.70001220703125, -54.23662185668945, 129.07298278808594, 1.186156, -1.722993, 0.23040581, -12.914365768432617, -31.97568130493164, -10.47817325592041
174, 2401950858, -178.50062561035156, -53.831298828125, 128.8726043701172, 1.1552712, -0.39002305, 2.5049648, 0.9521158933639526, -7.725545883178711, 3.1426000595092773
175, 2402000859, -178.0746307373047, -54.28108215332031, 128.68251037597656, 0.9128068, -0.78752196, 0.1857109, 5.653202533721924, 9.382367134094238, 2.5536861419677734
176, 2402050860, -177.50704956054688, -54.282657623291016, 128.289306640625, 0.3344031, -0.5399493, 0.04442215, 5.177295207977295, 0.5350715517997742, 5.179207801818848
177, 2402100861, -177.31228637695312, -54.76469802856445, 128.20565795898438, 0.5567225, -0.8691278, -1.30268, 2.743295907974243, 10.003168106079102, 1.1281110048294067
178, 2402150862, -177.6103515625, -54.54358673095703, 128.41908264160156, 0.19983645, -0.55305487, -0.76669025, -2.27001690864563, -4.196660995483398, -1.6767665147781372
179, 2402200863, -177.91737365722656, -54.6600456237793, 128.68968200683594, 9.56859E-4, -0.60490113, -1.1281624, -1.5174037218093872, 2.5364160537719727, -2.630126714706421
180, 2402250864, -178.32342529296875, -54.37672424316406, 129.00242614746094, -0.030442242, -0.15580228, -0.8324337, -2.818262815475464, -5.449279308319092, -2.84924578666687
181, 2402300865, -178.345947265625, -55.3036003112793, 129.12754821777344, 1.0065582, -0.5259029, -3.0385714, 1.8043899536132812, 18.82019805908203, -1.3865293264389038
182, 2402350866, -178.84933471679688, -54.35094451904297, 129.45721435546875, -0.24661079, 0.0925585, -0.4746189, -4.468940734863281, -18.80499839782715, -2.7375948429107666
183, 2402400867, -178.61756896972656, -54.716026306152344, 129.34181213378906, 1.1965604, -0.49465457, -2.48177, 2.966296434402466, 7.663055896759033, 1.7696939706802368
184, 2402450868, -178.9229278564453, -53.352657318115234, 129.51243591308594, -0.5330936, 0.1726631, -0.37709808, -3.137082576751709, -26.966976165771484, -0.8252476453781128
185, 2402500869, -178.81536865234375, -53.08266830444336, 129.4563751220703, 0.051423848, -0.7084415, -2.4782372, 1.4657667875289917, -5.0514302253723145, 1.3697234392166138
186, 2402550870, -178.595458984375, -53.11518096923828, 129.3740692138672, 0.17425518, 0.2897507, -0.623929, 3.28729510307312, 1.0086392164230347, 1.5668596029281616
187, 2402600871, -179.01693725585938, -52.44894790649414, 129.6735076904297, -0.61910945, 0.32052964, 0.519557, -3.4496500492095947, -13.062516212463379, -2.752147674560547
188, 2402650872, -178.8260955810547, -53.35688781738281, 129.6024627685547, 0.39402407, -0.13434693, -0.59708214, 2.8920962810516357, 18.50434684753418, 1.106896996498108
189, 2402700873, -178.9897918701172, -52.75612258911133, 129.67984008789062, -0.9050585, 0.7258194, 2.8554335, -1.828395962715149, -11.696686744689941, -0.10914045572280884
190, 2402750874, -179.06724548339844, -53.70082473754883, 129.7677001953125, 0.43469268, -0.8208976, -0.91651535, 0.06960545480251312, 19.20433235168457, -0.7812049388885498
191, 2402800875, -179.1486053466797, -53.50839614868164, 129.7999267578125, -0.6503112, 0.116195, 1.7548752, -0.9016484618186951, -3.5210602283477783, 0.26878616213798523
192, 2402850876, -179.1630096435547, -54.498714447021484, 129.81381225585938, -0.08869597, -0.6419493, -0.3866949, 0.14640191197395325, 20.13298988342285, 0.13567008078098297
193, 2402900877, -179.2654266357422, -55.60401153564453, 129.90882873535156, 0.062137943, -0.14673011, 0.73003864, -0.28397250175476074, 22.420509338378906, -0.8014938235282898
194, 2402950878, 179.87380981445312, -55.38218688964844, 130.4538116455078, 0.014179215, -0.3121241, 0.9676857, -8.02245044708252, -4.136794090270996, -5.561936855316162
195, 2403000879, 179.98715209960938, -55.777992248535156, 130.28521728515625, 0.10520911, -0.54776686, 0.20480537, -0.3078140914440155, 8.24833869934082, 2.5051474571228027
196, 2403050880, 179.82252502441406, -56.2249641418457, 130.33590698242188, -0.36829525, 0.47607544, 2.2973022, -2.2459030151367188, 9.275015830993652, 0.03799227252602577
197, 2403100881, 179.48509216308594, -58.29192352294922, 130.58213806152344, 0.28050607, -0.41874793, -1.5712061, -2.3956375122070312, 41.68794631958008, -1.8249762058258057
198, 2403150882, 179.0440673828125, -58.03864669799805, 130.6801300048828, -0.43252617, 0.56580895, 1.3959942, -6.947084426879883, -4.718535900115967, -0.5083789825439453
199, 2403200883, 178.93569946289062, -57.88484191894531, 130.49851989746094, 0.3309219, 0.066809475, 1.2368183, -5.034160137176514, -2.7774269580841064, 2.4615859985351562
200, 2403250884, 178.99398803710938, -57.86650466918945, 130.26922607421875, -0.4968103, 0.87625617, 5.575695, -2.513817071914673, -0.07824896275997162, 3.024634838104248
201, 2403300885, 178.37953186035156, -57.889923095703125, 130.59552001953125, -0.09895455, 0.6192362, 4.0733166, -6.547914028167725, 0.8763036131858826, -2.8678882122039795
202, 2403350886, 178.0015106201172, -58.138763427734375, 130.85543823242188, 0.013646807, 0.4243674, 1.9866018, -2.9405014514923096, 5.388401508331299, -2.0024354457855225
203, 2403400887, 177.52511596679688, -54.955894470214844, 131.05999755859375, -1.374269, 1.426459, 6.102127, -5.899997234344482, -63.19356155395508, -4.145328044891357
204, 2403450888, 177.29824829101562, -54.76512145996094, 131.17396545410156, 0.0725465, -0.4029116, 0.21781921, -2.459533452987671, -3.430280923843384, -0.8909766674041748
205, 2403500889, 177.3471221923828, -53.11991500854492, 131.14596557617188, -1.2062565, 1.2594852, 4.386775, 0.7328059673309326, -32.561119079589844, -0.6153743267059326
206, 2403550890, 177.343017578125, -52.94735336303711, 131.2802734375, -0.8244481, 0.3822753, 1.4861956, 2.277501106262207, -3.055177927017212, -1.1840797662734985
207, 2403600891, 177.68984985351562, -52.95402526855469, 131.24046325683594, -0.4561003, 0.54138863, -0.07919121, 6.509973526000977, 0.4275640547275543, 1.0746185779571533
208, 2403650892, 179.10350036621094, -52.248695373535156, 130.44020080566406, -0.48025, 1.1724205, -0.7362108, 15.767084121704102, -14.060025215148926, 9.910810470581055
209, 2403700893, -178.66964721679688, -52.95096206665039, 129.053466796875, -0.19693828, 0.011822159, -6.164665, 22.71232795715332, 14.41981029510498, 17.380590438842773
210, 2403750894, -177.54356384277344, -54.243316650390625, 128.4097137451172, -0.34090242, 0.2073407, -7.242119, 12.365092277526855, 26.3956241607666, 7.372781276702881
211, 2403800895, -177.5538330078125, -55.190879821777344, 128.46461486816406, -0.11967051, 0.03590272, -5.874511, 0.9011420607566833, 19.216960906982422, -0.8552179932594299
212, 2403850896, -177.96055603027344, -55.3529052734375, 128.67674255371094, 0.25972596, -0.33014137, -3.9953065, -4.437870025634766, 3.456571340560913, -1.9524409770965576
213, 2403900897, -178.07223510742188, -54.602622985839844, 128.67185974121094, -0.23221588, 0.06430915, 0.033611298, -2.1034276485443115, -14.679498672485352, 1.1639600992202759
214, 2403950898, -179.02064514160156, -54.05207443237305, 129.3944854736328, -0.1417119, 0.10446973, 0.63792515, -7.018557071685791, -10.903873443603516, -7.5570597648620605
215, 2404000899, -179.48410034179688, -53.420406341552734, 129.8507537841797, -0.019397125, -0.23866244, 1.3023863, -1.7027502059936523, -12.383164405822754, -4.6437153816223145
216, 2404050900, -179.24549865722656, -53.409751892089844, 129.7543487548828, 0.34410802, -0.39331943, 0.5534954, 3.431990146636963, 0.12146615236997604, 1.7399247884750366
217, 2404100901, -179.23687744140625, -53.43706512451172, 129.9132537841797, 0.14549598, -0.23660433, -0.09042454, 2.9321320056915283, 0.8446109890937805, -1.3121517896652222
218, 2404150902, -179.34080505371094, -53.70108413696289, 130.14512634277344, -0.12021555, -0.303101, -0.3626337, 1.860638976097107, 5.570728302001953, -2.230412006378174
219, 2404200903, -179.3799591064453, -53.0967903137207, 130.30873107910156, -0.06163124, 0.042574637, 0.16638088, 2.0517122745513916, -11.780510902404785, -1.2276349067687988
220, 2404250904, -179.67498779296875, -53.22332763671875, 130.6210174560547, -0.025554683, -0.34125087, -0.9375868, -0.6948899626731873, 2.826766014099121, -3.176936388015747
221, 2404300905, -179.9592742919922, -53.30988693237305, 130.8989715576172, 0.054515705, -0.425743, -1.3613148, -1.023065447807312, 2.048391342163086, -2.742403745651245
222, 2404350906, 179.8291473388672, -52.97447204589844, 131.08038330078125, -0.15379703, -0.07800334, -0.22436714, -1.121812105178833, -6.376716613769531, -1.5963435173034668
223, 2404400907, 179.6342010498047, -53.07250213623047, 131.27281188964844, 0.48076585, -0.2043142, -0.7716942, -0.61749666929245, 2.3017988204956055, -1.717856764793396
224, 2404450908, 179.34307861328125, -53.09506607055664, 131.4958953857422, -0.18365344, -0.13688459, -0.39574718, -2.0498616695404053, 0.8075878024101257, -2.086966037750244
225, 2404500909, 178.80177307128906, -53.19489669799805, 131.95669555664062, 0.17131642, -0.275872, -0.9449749, -3.243220567703247, 2.418048858642578, -4.906826972961426
226, 2404550910, 178.7628936767578, -52.962589263916016, 132.02462768554688, -0.06459748, 0.056344375, 0.18377972, 0.5149756669998169, -4.29409122467041, -0.326212078332901
227, 2404600911, 178.517822265625, -52.5893440246582, 132.19717407226562, -0.13625707, 0.2372399, -0.26590443, -1.9461032152175903, -7.079476833343506, -1.6753082275390625
228, 2404650912, 178.79397583007812, -52.87378692626953, 132.07664489746094, 0.12781388, 0.4025057, -1.2537146, 3.811575174331665, 5.985956192016602, 2.1823015213012695
229, 2404700913, 178.603515625, -52.823448181152344, 132.23049926757812, -0.3223077, 0.21824151, -1.2456465, -1.1492247581481934, -0.6307939291000366, -1.2911574840545654
230, 2404750914, 177.95933532714844, -51.751129150390625, 132.53895568847656, -0.4904337, 0.07207812, -0.08700466, -7.792709827423096, -20.991790771484375, -3.8263096809387207
231, 2404800915, 178.44334411621094, -51.95476531982422, 132.22654724121094, -0.21669894, 0.19970246, 0.38014698, 4.971338748931885, 4.282129287719727, 4.575015068054199
232, 2404850916, 177.65431213378906, -51.4912109375, 132.68211364746094, -0.32867715, -0.2634584, -0.46475983, -8.419413566589355, -8.740636825561523, -5.367541790008545
233, 2404900917, 177.72802734375, -52.398677825927734, 132.7584686279297, 0.42964086, 0.25046885, -0.3840742, 2.8807241916656494, 18.505184173583984, 0.3795353174209595
234, 2404950918, 177.13995361328125, -52.42999267578125, 133.15133666992188, -0.6153571, 0.25630823, 0.5075283, -5.3277692794799805, 1.173174262046814, -4.172417163848877
235, 2405000919, 177.0972442626953, -53.54415512084961, 133.2744140625, 0.44901586, -0.123367414, -1.4785557, 1.3182110786437988, 22.662250518798828, 0.22690021991729736
236, 2405050920, 176.66709899902344, -53.16582489013672, 133.4331512451172, -0.60588014, 0.3650163, 0.9185648, -5.849307060241699, -7.118778228759766, -1.7160383462905884
237, 2405100921, 176.86744689941406, -54.800594329833984, 133.38473510742188, 0.8500233, -0.012047125, -1.0067139, 3.4295003414154053, 32.943153381347656, 2.9994564056396484
238, 2405150922, 177.05325317382812, -54.53635025024414, 133.1575164794922, -0.70566416, 0.40625817, 1.3808832, 0.21504227817058563, -5.082016468048096, 2.9319119453430176
239, 2405200923, 177.3693389892578, -54.65505599975586, 132.86343383789062, -0.0046495167, -0.28034604, -1.1974983, 1.7361260652542114, 2.538128614425659, 4.105353832244873
240, 2405250924, 177.75563049316406, -55.32821273803711, 132.52610778808594, -0.68239397, 0.5429009, 1.5448256, 2.402259111404419, 13.619706153869629, 5.027736663818359
241, 2405300925, 178.0718231201172, -55.498382568359375, 132.15162658691406, 0.10261927, -0.15459341, 0.14637852, 0.36860764026641846, 3.578437089920044, 4.957507610321045
242, 2405350926, 178.4507293701172, -55.99773025512695, 131.7876434326172, -0.4439781, 0.23374526, 1.111311, 1.7636997699737549, 10.19067096710205, 4.985671043395996
243, 2405400927, 178.70172119140625, -54.684722900390625, 131.35800170898438, -0.50717056, 0.58565557, 2.09721, -1.8372293710708618, -26.04191780090332, 4.817783355712891
244, 2405450928, 178.950927734375, -55.895809173583984, 131.11119079589844, 0.08338844, -0.093396455, -0.17509842, 1.129819393157959, 24.49042510986328, 3.8942131996154785
245, 2405500929, 179.42977905273438, -56.48066329956055, 130.69398498535156, -0.1396775, 0.34604746, 0.21396923, 2.8518130779266357, 11.960277557373047, 5.395872592926025
246, 2405550930, 179.53050231933594, -57.63966751098633, 130.5230712890625, 0.35983014, -0.16685835, -0.83434486, -0.6458954215049744, 23.49196434020996, 2.6570377349853516
247, 2405600931, 179.63453674316406, -57.01616287231445, 130.22227478027344, -0.21979907, 0.2947756, 2.1494627, -2.775041341781616, -12.162934303283691, 3.745044469833374
248, 2405650932, 179.5745391845703, -56.630855560302734, 130.0268096923828, 0.06444504, -0.04142522, 2.496767, -4.262868881225586, -7.3902812004089355, 2.674267053604126
249, 2405700933, 179.4728240966797, -56.46535110473633, 129.96188354492188, -0.00833301, 0.41491112, 4.685424, -2.9112346172332764, -2.9853532314300537, 1.2772183418273926
250, 2405750934, 178.93667602539062, -55.95856857299805, 130.30120849609375, -0.77261096, 0.29428118, 4.8567247, -4.872456073760986, -9.753666877746582, -3.3263943195343018
251, 2405800935, 178.4203338623047, -56.030418395996094, 130.73741149902344, -0.5192327, 0.30278876, 3.76935, -2.888047933578491, 1.8746613264083862, -4.2565226554870605
252, 2405850936, 177.39102172851562, -54.290199279785156, 131.6329803466797, -1.2576153, 0.89907193, 5.239437, -5.674567222595215, -34.08209228515625, -10.911519050598145
253, 2405900937, 176.19869995117188, -54.62517547607422, 132.81024169921875, -0.33118898, -0.1782289, 1.1533165, -4.480254173278809, 7.773237705230713, -12.70527172088623
254, 2405950938, 175.76580810546875, -53.44513702392578, 133.4283447265625, -1.2758473, 1.0094317, 3.9934034, 1.554867148399353, -22.716552734375, -8.312504768371582
255, 2406000939, 175.80517578125, -53.61833572387695, 133.74327087402344, -0.3902192, 0.26726037, -0.03528118, 6.061734676361084, 4.041768550872803, -2.8969128131866455
256, 2406050940, 176.73402404785156, -53.97883224487305, 133.42176818847656, 0.42261717, -0.2502903, -4.4716225, 13.594664573669434, 7.258776664733887, 4.841700077056885
257, 2406100941, 179.7560272216797, -53.91533660888672, 131.34718322753906, -0.32697856, 0.47203913, -5.4708853, 27.098411560058594, -1.7072877883911133, 24.950328826904297
258, 2406150942, -178.91244506835938, -55.73590087890625, 130.78567504882812, 0.011220015, 0.10068149, -7.37671, 17.654762268066406, 36.76530075073242, 6.784639358520508
259, 2406200943, -178.6419677734375, -57.90550994873047, 130.8926544189453, 0.66852367, -0.175164, -5.6709175, 7.406157970428467, 43.66510772705078, -1.511841058731079
260, 2406250944, -178.7071990966797, -57.907039642333984, 131.096923828125, 0.34739837, -0.167319, -2.8671832, 2.3652031421661377, 0.2914448380470276, -1.587206482887268
261, 2406300945, -179.43922424316406, -57.22869110107422, 131.5435333251953, -0.36914036, -0.90785587, -0.54360294, -6.890160083770752, -13.330795288085938, -3.986008405685425
262, 2406350946, 179.7849578857422, -56.7603759765625, 132.10179138183594, 0.6188157, -1.1078094, -0.49698925, -5.947253227233887, -9.0698823928833, -5.468639373779297
263, 2406400947, 179.546142578125, -56.00687789916992, 132.36367797851562, 0.5668903, -0.9188306, 0.09753513, -0.2058037519454956, -14.735033988952637, -2.4046266078948975
264, 2406450948, 179.58863830566406, -55.466575622558594, 132.4095458984375, 0.25648335, -0.5220676, 0.29903412, 1.813238501548767, -10.480605125427246, -0.014087035320699215
265, 2406500949, 179.47381591796875, -55.51023483276367, 132.63375854492188, 0.6252869, -0.60005146, -0.13787174, 1.6054468154907227, 1.2160868644714355, -1.9496004581451416
266, 2406550950, 179.72882080078125, -55.08257293701172, 132.5074462890625, 0.49166593, -0.14693674, 0.24230385, 3.2283034324645996, -8.236839294433594, 1.9639208316802979
267, 2406600951, 179.5420684814453, -54.881683349609375, 132.64697265625, 0.15796398, -0.2740119, -0.3049507, -1.2438470125198364, -3.6796798706054688, -1.0410200357437134
268, 2406650952, 179.42112731933594, -54.97254943847656, 132.70742797851562, 0.24847443, -0.27473018, 0.03476143, -1.2229042053222656, 2.1516315937042236, -0.09253016859292984
269, 2406700953, 179.3095703125, -54.88600158691406, 132.77511596679688, 0.46666822, -0.023843579, 0.20569801, -0.917143702507019, -1.3925155401229858, -0.21101447939872742
270, 2406750954, 179.18118286132812, -54.929420471191406, 132.74502563476562, -0.04586173, -0.28986356, 0.018839836, -2.8535499572753906, 1.1936652660369873, 0.9437234997749329
271, 2406800955, 179.663818359375, -55.347320556640625, 132.35986328125, 0.34131008, -0.0020980043, -0.44483948, 3.537900686264038, 8.644667625427246, 5.073617458343506
272, 2406850956, 179.6165008544922, -55.56680679321289, 132.32972717285156, -0.10109558, -0.07986252, -1.463727, -1.2369704246520996, 4.720592021942139, 0.956167459487915
273, 2406900957, 179.31590270996094, -55.46300506591797, 132.41006469726562, -0.25243643, -0.3344013, -2.2451024, -4.480279445648193, -1.7348688840866089, -0.34291163086891174
274, 2406950958, 179.08416748046875, -54.61920928955078, 132.36172485351562, -0.24880524, -0.12659897, -0.9449377, -5.220558166503906, -16.5479793548584, 0.9049969911575317
275, 2407000959, 179.01837158203125, -54.371952056884766, 132.23892211914062, -0.041951146, -0.25567546, -1.0596867, -3.1108667850494385, -4.632049083709717, 1.931265950202942
276, 2407050960, 178.8382110595703, -54.10393142700195, 132.20289611816406, -0.020005304, -0.5726365, -1.7884693, -3.9807512760162354, -5.031309127807617, 0.9062401652336121
277, 2407100961, 179.38027954101562, -54.30812072753906, 131.72372436523438, 1.8168423, 0.22955814, -1.6687927, 3.272265672683716, 4.332911491394043, 6.253829479217529
278, 2407150962, 179.08941650390625, -53.809627532958984, 131.7954864501953, -0.4171789, -0.20117372, -1.0042343, -4.450295448303223, -9.617480278015137, -0.3890156149864197
279, 2407200963, 178.83656311035156, -53.558780670166016, 131.7919921875, 0.22967319, -0.23657237, -1.421422, -4.906592845916748, -4.677982330322266, 0.536608099937439
280, 2407250964, 179.05026245117188, -53.10142135620117, 131.4065399169922, -0.3583697, -0.10620654, -0.07459545, -1.7058027982711792, -8.889150619506836, 5.021100044250488
281, 2407300965, 178.72647094726562, -52.31393051147461, 131.36216735839844, -0.25065458, -0.21171896, -0.5973015, -6.975630760192871, -15.417644500732422, 0.8186811208724976
282, 2407350966, 179.0500030517578, -53.254173278808594, 131.0252227783203, 0.05557426, 0.50004363, 1.035491, 1.3063255548477173, 19.060876846313477, 5.02731990814209
283, 2407400967, 179.01280212402344, -52.10684585571289, 130.759521484375, -1.165705, 0.715838, 3.8238602, -4.762423515319824, -22.658212661743164, 3.4190497398376465
284, 2407450968, 179.25726318359375, -54.57209014892578, 130.61270141601562, 0.18609332, -0.3342433, -0.42041492, 2.7351109981536865, 49.60893630981445, 3.083787202835083
285, 2407500969, 178.82260131835938, -54.56025695800781, 130.7044677734375, -0.7451044, 0.52849513, 1.7697906, -6.992537498474121, 0.11808538436889648, -0.48224514722824097
286, 2407550970, 178.95790100097656, -56.21771240234375, 130.62997436523438, 0.2633937, -0.3478949, -0.8350277, 1.6837129592895508, 33.46134948730469, 2.073219060897827
287, 2407600971, 178.5582733154297, -56.15726089477539, 130.72682189941406, -0.97896576, 0.39519316, 1.4470491, -6.1802659034729, -0.8500950336456299, -0.5195115208625793
288, 2407650972, 178.16184997558594, -58.090110778808594, 131.01556396484375, 0.2792582, -0.5759786, -2.5559125, -2.871429920196533, 39.06278610229492, -1.4451515674591064
289, 2407700973, 178.0369415283203, -58.28367233276367, 130.9606170654297, -0.44548234, 0.4614883, 1.8798456, -3.2292051315307617, 4.183998107910156, 1.2892184257507324
290, 2407750974, 177.54490661621094, -57.88956832885742, 131.15975952148438, -0.4262517, 0.17221718, 1.9030361, -6.253568649291992, -7.462777614593506, -1.8281289339065552
291, 2407800975, 176.38133239746094, -58.42239761352539, 132.02650451660156, -0.2886071, 0.35473183, 3.226798, -8.343299865722656, 11.456435203552246, -7.987834453582764
292, 2407850976, 175.31365966796875, -58.565032958984375, 132.79505920410156, 0.28460887, 0.17308933, 3.368989, -8.042097091674805, 3.7560601234436035, -7.2257914543151855
293, 2407900977, 174.33889770507812, -57.839168548583984, 133.594970703125, -0.22435783, 0.9618616, 5.802906, -5.693759918212891, -13.368520736694336, -9.123345375061035
294, 2407950978, 173.66770935058594, -57.67949295043945, 134.2021942138672, -0.1384846, 0.59645504, 3.249793, -2.9435694217681885, -2.172651529312134, -6.195793628692627
295, 2408000979, 173.05673217773438, -58.12116622924805, 134.887451171875, -0.30099684, 1.008176, 2.919753, -0.4045584797859192, 9.939814567565918, -5.628938674926758
296, 2408050980, 173.13363647460938, -56.014739990234375, 134.89886474609375, -0.576536, 1.4622227, 3.9649858, 1.9407472610473633, -41.486900329589844, -4.605259895324707
297, 2408100981, 173.08853149414062, -55.71529769897461, 135.07766723632812, -0.05395245, 0.37043396, -0.01272583, 2.2673051357269287, -5.387604236602783, -2.125779867172241
298, 2408150982, 174.4552001953125, -53.55551528930664, 134.07569885253906, -0.5951292, 0.9047656, 1.4451456, 11.197259902954102, -43.88173294067383, 7.429623603820801
299, 2408200983, 175.82313537597656, -53.675270080566406, 133.21456909179688, -0.0067118704, 0.30034867, -1.4788542, 13.701634407043457, 1.8329651355743408, 10.968292236328125
300, 2408250984, 177.95156860351562, -53.2505989074707, 131.54098510742188, -0.18249922, -0.31861728, -3.7449183, 15.88473892211914, -9.250349044799805, 20.020673751831055
301, 2408300985, -179.59666442871094, -54.59636306762695, 129.99993896484375, 0.16262591, -0.41917038, -6.0412054, 24.327777862548828, 26.96171760559082, 19.12020492553711
302, 2408350986, -178.38087463378906, -56.62697219848633, 129.2668914794922, 0.81447095, -0.5998997, -6.0528817, 12.420683860778809, 41.063568115234375, 8.148910522460938
303, 2408400987, -177.80712890625, -57.901302337646484, 128.92666625976562, 0.5759852, -0.34627393, -4.212002, 5.9594526290893555, 25.90913963317871, 3.415187358856201
304, 2408450988, -177.54786682128906, -58.40184783935547, 128.59742736816406, 0.29917946, -0.5633231, -1.9629846, -0.19913949072360992, 10.460315704345703, 3.6523356437683105
305, 2408500989, -177.86346435546875, -58.230377197265625, 128.79742431640625, 0.92859197, -0.43429172, -1.1459389, -2.7011804580688477, -3.1902122497558594, -1.375052571296692
306, 2408550990, -178.0836639404297, -57.407474517822266, 128.81170654296875, 0.23931375, -0.45154703, 0.18326473, -3.9542148113250732, -16.130128860473633, 1.0165213346481323
307, 2408600991, -177.77203369140625, -57.54661178588867, 128.5675506591797, 0.21052417, -0.24360879, 0.30223846, 2.3210906982421875, 3.201545000076294, 3.109893798828125
308, 2408650992, -177.32791137695312, -57.95116424560547, 128.3288116455078, 0.24609849, -0.34637466, -0.5367317, 5.051624774932861, 8.51989459991455, 2.7859859466552734
309, 2408700993, -176.9832305908203, -58.09886169433594, 128.11924743652344, -0.0869937, -0.099779874, -0.34657955, 3.544743299484253, 3.389401912689209, 2.6564128398895264
310, 2408750994, -176.62364196777344, -58.069087982177734, 127.927734375, -0.1814163, 0.030476214, -0.7517376, 4.146708965301514, -0.15051312744617462, 2.641369104385376
311, 2408800995, -176.7583770751953, -58.2091064453125, 128.07005310058594, -0.44229057, -0.22753395, -1.3445835, -0.07037090510129929, 3.0388216972351074, -1.076280117034912
312, 2408850996, -177.16448974609375, -58.021636962890625, 128.2981719970703, -0.4483739, 0.09248262, -0.95338345, -4.043949604034424, -3.540083408355713, -1.6227706670761108
313, 2408900997, -177.83897399902344, -58.102752685546875, 128.8376007080078, -0.010501309, -0.3125203, -2.5613675, -4.128272533416748, 1.7032318115234375, -5.189664840698242
314, 2408950998, -178.16558837890625, -57.8521614074707, 129.07398986816406, -0.68778914, -0.21950045, -0.8048639, -2.319842576980591, -4.765285491943359, -1.7484827041625977
315, 2409000999, -178.3765869140625, -57.406410217285156, 129.28585815429688, -0.26629937, 0.11483671, -0.72942543, -0.4361874461174011, -8.646324157714844, -1.4171903133392334
316, 2409051000, -178.05931091308594, -57.43507385253906, 129.05889892578125, 0.021164218, 0.35024694, -1.3420715, 2.7245328426361084, 0.9814853668212891, 3.0063536167144775
317, 2409101001, -177.7368927001953, -57.186744689941406, 128.81288146972656, -0.29943606, 0.17077194, -1.3330803, 2.5105323791503906, -4.5331926345825195, 3.4189345836639404
318, 2409151002, -177.66720581054688, -56.546974182128906, 128.6874237060547, 0.22783011, 0.44180802, -0.39425182, -0.503458559513092, -12.3980131149292, 2.4649763107299805
319, 2409201003, -177.2719268798828, -56.234066009521484, 128.4010467529297, -0.25362596, 0.3385097, 1.0660772, 3.3383655548095703, -5.77954626083374, 4.024825572967529
320, 2409251004, -177.93536376953125, -56.101173400878906, 128.80462646484375, 0.028180737, -0.09223374, -0.5164814, -6.357891082763672, -2.5120813846588135, -3.79764461517334
321, 2409301005, -177.48739624023438, -57.09235382080078, 128.4845733642578, 0.16421363, 0.11493975, -0.57784367, 3.8175911903381348, 20.279844284057617, 3.3118999004364014
322, 2409351006, -177.87478637695312, -56.20118713378906, 128.6360626220703, -0.2806661, 0.57071495, 1.976551, -5.01142692565918, -17.54330825805664, -0.3611961901187897
323, 2409401007, -177.91220092773438, -57.33613204956055, 128.67752075195312, 0.74968636, 0.07168049, -0.5217991, 0.14896811544895172, 22.9974308013916, -0.7055692076683044
324, 2409451008, -178.5693359375, -57.42989730834961, 129.11451721191406, -0.36164755, 0.57384896, 2.3710346, -5.5788350105285645, 2.06217360496521, -4.182504653930664
325, 2409501009, -178.37567138671875, -59.2940559387207, 129.06214904785156, 1.1013994, -0.025631236, -0.8007612, 3.1887731552124023, 37.613948822021484, 0.13728810846805573
326, 2409551010, -178.65542602539062, -59.4273796081543, 129.2137451171875, -0.6619493, 0.12746161, 0.6829996, -2.783081531524658, 2.9567933082580566, -1.0307835340499878
327, 2409601011, -178.73497009277344, -59.027862548828125, 129.24720764160156, -0.5535576, 0.24224132, -0.38509274, -0.808534562587738, -7.666914939880371, 0.4206509292125702
328, 2409651012, -178.7209930419922, -58.856056213378906, 129.16238403320312, -0.3849036, 0.70103866, 0.90227413, -0.9712467193603516, -3.0877702236175537, 1.5329548120498657
329, 2409701013, -179.38784790039062, -58.56414031982422, 129.4772186279297, -0.6860225, 0.15091707, 1.288209, -7.749543190002441, -5.565788269042969, -2.593588352203369
330, 2409751014, -179.6693878173828, -58.512672424316406, 129.565185546875, 0.08470068, 0.55554146, 2.7077913, -3.9268598556518555, -0.7128145694732666, -0.32966119050979614
331, 2409801015, 179.4484405517578, -57.62358856201172, 130.0403289794922, -0.42449626, 0.5513893, 4.6372643, -9.372210502624512, -17.447586059570312, -4.480786323547363
332, 2409851016, 178.4632110595703, -57.66582107543945, 130.7462615966797, 0.5130664, 0.14147922, 2.531374, -7.571813583374023, 1.3049906492233276, -6.9586310386657715
333, 2409901017, 177.9754638671875, -55.48479461669922, 131.04928588867188, -0.69944805, 1.5164112, 6.700447, -4.490692615509033, -43.17165756225586, -4.110454082489014
334, 2409951018, 177.4503173828125, -54.62108612060547, 131.5157928466797, -0.26868403, -1.4953017E-4, 1.5203018, -2.6450538635253906, -16.727123260498047, -5.448942184448242
335, 2410001019, 177.4261474609375, -52.925140380859375, 131.61761474609375, -0.9176454, 1.1992918, 4.7479486, 1.3611948490142822, -33.5125846862793, -2.1350865364074707
336, 2410051020, 176.99436950683594, -53.6926155090332, 132.10643005371094, 0.17310028, -0.63138723, 0.3836813, -0.5857120156288147, 15.929651260375977, -4.506474018096924
337, 2410101021, 177.0885772705078, -52.32929229736328, 132.11724853515625, -0.43054363, 0.4155564, 2.8350525, 2.2618095874786377, -26.90768051147461, -0.9561485052108765
338, 2410151022, 177.75790405273438, -52.451908111572266, 131.875244140625, -0.06415358, -0.57369024, -1.0987244, 9.758881568908691, 2.6316652297973633, 3.6410694122314453
339, 2410201023, 179.57879638671875, -52.406314849853516, 130.7488555908203, -0.5966086, 0.20807458, -2.2773337, 18.766305923461914, -0.9149614572525024, 14.291508674621582
340, 2410251024, -178.956298828125, -55.11629104614258, 129.98611450195312, 0.5346511, -0.92090946, -7.594926, 17.191553115844727, 54.56068801879883, 9.304641723632812
341, 2410301025, -178.18084716796875, -56.99396896362305, 129.74766540527344, 0.3452684, 0.20226593, -5.6882176, 11.756155967712402, 37.92380905151367, 2.304959535598755
342, 2410351026, -178.4493865966797, -58.578285217285156, 129.96974182128906, 0.08230194, -0.15189537, -4.49336, -1.4058841466903687, 31.91986083984375, -2.717061996459961
343, 2410401027, -178.2455596923828, -59.76972961425781, 129.7771759033203, 0.61086535, -0.38135904, -2.9939299, 0.9770296216011047, 24.19315528869629, 1.8664301633834839
344, 2410451028, -178.26600646972656, -58.90737533569336, 129.6404571533203, 0.4003372, -0.14110775, -0.6067343, -2.554241895675659, -16.8756046295166, 2.500988483428955
345, 2410501029, -178.58221435546875, -58.599300384521484, 129.7726593017578, 0.40132892, -0.5389529, -0.82428646, -3.856642007827759, -5.875199317932129, -0.618837833404541
346, 2410551030, -179.343017578125, -57.898231506347656, 130.21774291992188, 0.070525266, -0.43633977, 0.9944048, -7.440798759460449, -13.7792387008667, -3.8465511798858643
347, 2410601031, -179.5401611328125, -58.49365997314453, 130.44725036621094, 0.28626132, -0.2580285, 0.67227936, 0.16408641636371613, 12.209480285644531, -1.9524868726730347
348, 2410651032, -179.5726318359375, -58.59062194824219, 130.45025634765625, 0.041262057, -0.17920408, 0.10892391, -0.392173171043396, 2.2663209438323975, 0.5360717177391052
349, 2410701033, -179.36978149414062, -58.780540466308594, 130.31736755371094, 0.095769934, -0.19467442, -0.3710251, 1.9916168451309204, 4.139157772064209, 1.9292285442352295
350, 2410751034, -179.2762908935547, -59.102664947509766, 130.28684997558594, -0.14494458, -0.06952963, -0.6743307, 1.5521254539489746, 6.774383068084717, 0.8210782408714294
351, 2410801035, -179.54495239257812, -59.386112213134766, 130.47256469726562, -0.20140506, -0.11622473, -1.0930653, -1.974937915802002, 5.97731351852417, -1.3753652572631836
352, 2410851036, -179.5612335205078, -59.687557220458984, 130.48980712890625, -0.06234514, -0.07261902, -1.1056166, 0.17608964443206787, 6.3565521240234375, 0.359775573015213
353, 2410901037, -179.76055908203125, -59.51490020751953, 130.59552001953125, -0.5892814, 0.002517091, -1.3180151, -1.9580656290054321, -3.130504846572876, -0.4690113663673401
354, 2410951038, 179.71568298339844, -59.21477127075195, 130.8905792236328, -0.42274973, 0.19687793, -1.3380394, -5.192190647125244, -5.673279285430908, -2.430410623550415
355, 2411001039, -179.9745635986328, -59.42723083496094, 130.67684936523438, 0.25287652, 0.010426098, -1.816019, 2.723215341567993, 4.573214054107666, 2.7691988945007324
356, 2411051040, 179.54722595214844, -58.25210189819336, 130.8725128173828, -0.34328237, 0.018416462, -0.7553978, -6.011072635650635, -23.164466857910156, -1.5334688425064087
357, 2411101041, 179.91775512695312, -59.042930603027344, 130.7215118408203, 1.0399505, -0.09243596, -3.4458838, 5.034710884094238, 16.138343811035156, 2.2241909503936768
358, 2411151042, 179.26834106445312, -58.151485443115234, 131.11441040039062, -0.38106367, 0.49936125, -0.4113102, -6.077863693237305, -17.46869659423828, -3.640962600708008
359, 2411201043, 179.25396728515625, -59.36569595336914, 131.1929168701172, 0.28785676, -0.16317205, -2.5040221, 1.2604163885116577, 24.62175750732422, 0.07883312553167343
360, 2411251044, 179.38836669921875, -58.467491149902344, 130.96908569335938, -0.35909054, 0.77533317, 0.9976425, -0.9429027438163757, -17.659955978393555, 2.679002285003662
361, 2411301045, 178.6366729736328, -57.23332595825195, 131.2642059326172, 0.37857148, -0.50522333, -1.4942732, -9.825989723205566, -24.295726776123047, -2.9854307174682617
362, 2411351046, 179.4403076171875, -56.67889404296875, 130.49111938476562, -0.6561437, 0.766999, 2.817792, 3.3103713989257812, -10.897512435913086, 8.826559066772461
363, 2411401047, 179.81239318847656, -57.867549896240234, 130.1326141357422, -0.22576284, -0.118652076, -0.14244938, 1.6189454793930054, 24.075136184692383, 4.611667156219482
364, 2411451048, 179.90673828125, -59.71906280517578, 130.05787658691406, -0.28698146, 0.3111305, 0.81045055, 0.809779167175293, 37.35820007324219, 1.448173999786377
365, 2411501049, 179.50869750976562, -59.290489196777344, 130.1348114013672, -0.24715772, -0.10608953, 0.982419, -6.424433708190918, -8.239680290222168, -0.24450817704200745
366, 2411551050, 179.95858764648438, -59.28411102294922, 129.640869140625, -0.2359063, -0.079655774, 1.2325048, 0.7080444693565369, 0.1787063479423523, 5.626015663146973
367, 2411601051, 179.88905334472656, -59.938167572021484, 129.618896484375, -0.82497203, 0.26653048, 2.2153645, -1.5655295848846436, 13.40839958190918, 0.820274829864502
368, 2411651052, -179.54136657714844, -61.18571472167969, 129.1468048095703, 0.38356858, -0.22742845, -1.7260199, 3.377706289291382, 25.2895450592041, 5.142364978790283
369, 2411701053, -179.54835510253906, -60.258792877197266, 128.8793182373047, -0.53423935, 0.12938651, 1.0200405, -4.603224277496338, -18.19017791748047, 3.342538356781006
370, 2411751054, -179.74327087402344, -59.346702575683594, 128.7744140625, 0.041397057, -0.29981783, 0.52894306, -5.504174709320068, -17.911113739013672, 1.744903564453125
371, 2411801055, -179.78732299804688, -59.379478454589844, 128.64300537109375, -0.038234573, 0.47725895, 3.8835182, -2.9416964054107666, 0.9862086772918701, 1.9151089191436768
372, 2411851056, 178.85400390625, -58.37567901611328, 129.5232391357422, -0.31841075, -0.06150406, 4.2886934, -11.892643928527832, -19.677865982055664, -8.686503410339355
373, 2411901057, 178.68234252929688, -59.22911834716797, 129.67950439453125, 0.8014991, -0.28921068, 1.3588676, -0.5577176809310913, 17.42281150817871, -0.6721861362457275
374, 2411951058, 178.0538330078125, -56.05410385131836, 130.0961456298828, -1.1807975, 1.1913692, 7.4942513, -5.321432590484619, -63.022769927978516, -5.688326358795166
375, 2412001059, 177.1765899658203, -55.73950958251953, 130.8311309814453, -0.11211835, -0.62386566, 1.6464949, -5.165472984313965, -5.622635841369629, -7.91815710067749
376, 2412051060, 176.78599548339844, -54.69752883911133, 131.32037353515625, -0.78856486, 0.91495764, 5.9462156, 0.4256570041179657, -20.19528579711914, -6.091557502746582
377, 2412101061, 175.93019104003906, -54.641273498535156, 132.221923828125, -0.51951563, -0.31766957, 2.7438107, -2.1965649127960205, -0.141335591673851, -9.901273727416992
378, 2412151062, 175.88626098632812, -55.40199279785156, 132.73541259765625, 0.29870808, 0.11070809, 0.34321785, 7.738779544830322, 15.913360595703125, -4.209170818328857
379, 2412201063, 177.3888702392578, -55.976844787597656, 132.0584716796875, -0.1715225, -0.31325653, -3.8443584, 19.074384689331055, 11.347132682800293, 8.868636131286621
380, 2412251064, -179.69515991210938, -56.53462600708008, 130.24172973632812, 0.53601754, -0.058587886, -6.6071367, 28.308944702148438, 11.062262535095215, 20.98041343688965
381, 2412301065, -179.01016235351562, -57.89196014404297, 129.96685791015625, 0.3864229, 0.029649552, -6.8604755, 9.280673027038574, 27.493942260742188, 3.2488434314727783
382, 2412351066, -179.46986389160156, -60.0737419128418, 130.52581787109375, 0.33641192, -0.2869452, -5.5800176, 0.5942834615707397, 43.87099838256836, -5.760123252868652
383, 2412401067, -179.4799041748047, -60.977210998535156, 130.60748291015625, 0.07584376, -0.6911287, -3.0111876, 1.4290907382965088, 18.379079818725586, -0.3905166983604431
384, 2412451068, -179.24603271484375, -60.91748809814453, 130.39573669433594, 1.1744041, -0.47443128, -1.198432, 1.181447982788086, -0.8524377942085266, 2.648897886276245
385, 2412501069, -179.7077178955078, -61.24534225463867, 130.68028259277344, 0.17078803, -0.47485283, 0.6009722, -4.047028541564941, 6.8533735275268555, -2.2320406436920166
386, 2412551070, 179.39608764648438, -61.33742904663086, 131.34030151367188, 0.1127073, -0.60713977, 0.096720695, -6.1387038230896, 2.1829349994659424, -5.756932735443115
387, 2412601071, 179.21185302734375, -60.63754653930664, 131.4594268798828, -0.06696538, -0.30608535, 0.90252304, -1.396058440208435, -13.656482696533203, -0.746371328830719
388, 2412651072, 179.69456481933594, -60.68524169921875, 131.10513305664062, 0.12880939, -0.08385513, -0.2814846, 3.6828601360321045, 1.2471239566802979, 4.059921741485596
389, 2412701073, 179.74356079101562, -60.48949432373047, 130.96788024902344, -0.24244405, -0.02135901, -0.5144167, -1.2058677673339844, -3.594808340072632, 1.9086445569992065
390, 2412751074, 179.95187377929688, -60.90678405761719, 130.80435180664062, -0.2775776, 0.06476388, -1.5935173, 1.5194110870361328, 8.668240547180176, 2.2027509212493896
391, 2412801075, -179.58714294433594, -60.7000617980957, 130.49269104003906, -0.38949323, 0.27337736, -2.09239, 3.9848225116729736, -3.799337148666382, 3.6328866481781006
392, 2412851076, 179.61233520507812, -59.614013671875, 130.80311584472656, -0.044240367, -0.09416132, -3.4761167, -10.416971206665039, -21.3980770111084, -2.5057485103607178
393, 2412901077, 179.4607391357422, -58.541961669921875, 130.71563720703125, 0.9312256, 0.24815269, -2.154222, -4.328293323516846, -21.123701095581055, 1.3048964738845825
394, 2412951078, 178.93666076660156, -56.50449752807617, 130.79220581054688, -0.65028834, -0.045947112, -0.43164825, -8.983306884765625, -40.40734100341797, -0.8124980330467224
395, 2413001079, 179.117431640625, -56.70779037475586, 130.641357421875, 0.17094047, 0.07560426, -1.0341482, 1.3004024028778076, 4.361053466796875, 2.3083181381225586
396, 2413051080, 178.62083435058594, -58.22329330444336, 131.11129760742188, -0.6212429, 0.20270434, 0.81534386, -1.8054856061935425, 30.728260040283203, -3.8759899139404297
397, 2413101081, 177.76377868652344, -58.312705993652344, 131.74818420410156, -0.16232383, -0.07535873, -0.36939526, -6.096979141235352, 2.3221852779388428, -6.062896728515625
398, 2413151082, 177.44107055664062, -58.39078903198242, 132.04940795898438, 0.78307384, 0.13697891, -2.446228, -1.121588945388794, 2.0175108909606934, -2.514822006225586
399, 2413201083, 176.8875274658203, -55.76559829711914, 132.10780334472656, -0.80932474, 0.8383875, 2.8444767, -9.88293170928955, -52.08273696899414, -2.652491569519043
400, 2413251084, 177.8199005126953, -56.39447021484375, 131.30751037597656, 1.5101191, -0.48659703, -1.76371, 5.5727033615112305, 12.474004745483398, 10.080702781677246
401, 2413301085, 178.06153869628906, -54.034385681152344, 130.7521209716797, -0.59121275, 0.3137505, 2.9621315, -4.089539051055908, -47.07197570800781, 5.218066692352295
402, 2413351086, 178.8542938232422, -54.075401306152344, 130.06968688964844, 1.6980006, -0.7947021, -1.8509793, 5.011645793914795, 0.9286575317382812, 8.609776496887207
403, 2413401087, 179.09242248535156, -53.02867889404297, 129.70152282714844, -0.65971994, 0.8853719, 3.6346388, -0.9622743129730225, -20.682512283325195, 4.579784393310547
404, 2413451088, 179.198974609375, -54.178096771240234, 129.58700561523438, 0.12986237, -0.09758252, 0.85114765, 0.4942546784877777, 23.289260864257812, 2.2795631885528564
405, 2413501089, 178.8126220703125, -56.066829681396484, 129.90943908691406, 0.18894154, -0.48710635, 0.049126625, -2.2345471382141113, 38.158870697021484, -2.4526922702789307
406, 2413551090, 177.9574737548828, -54.80575942993164, 130.29197692871094, -0.6452877, -0.00959787, 2.4800634, -10.595515251159668, -24.76149559020996, -4.4725141525268555
407, 2413601091, 177.92691040039062, -55.23690414428711, 130.32627868652344, 0.09078739, -0.14258438, 1.5134802, 0.15251334011554718, 8.959223747253418, 0.4934917986392975
408, 2413651092, 177.5301513671875, -55.5328483581543, 130.68862915039062, -0.49029356, 0.6288595, 3.7193375, -1.7698534727096558, 6.405920028686523, -3.301614999771118
409, 2413701093, 176.3929443359375, -56.334686279296875, 131.69972229003906, 0.05016927, 0.37713653, 2.878314, -5.785972595214844, 16.940519332885742, -9.885564804077148
410, 2413751094, 175.1456756591797, -56.282623291015625, 132.7889404296875, 0.045190297, 0.7064232, 3.669549, -6.615400314331055, 0.17853644490242004, -11.55073070526123
411, 2413801095, 174.056396484375, -55.04877471923828, 133.68528747558594, -0.36962202, 0.53928715, 4.3073263, -6.775090217590332, -23.290298461914062, -11.81092357635498
412, 2413851096, 173.50990295410156, -54.97541809082031, 134.3844757080078, -0.2310507, 0.5939305, 4.204422, 0.7314167022705078, -0.26794344186782837, -7.552020072937012
413, 2413901097, 172.7554473876953, -54.92814254760742, 135.2732391357422, -0.86783016, 0.24656676, 4.0560884, -0.33046025037765503, 0.6027646064758301, -9.669931411743164
414, 2413951098, 172.7440643310547, -55.49199295043945, 135.61221313476562, 0.126372, 0.0156166265, 0.71982, 5.547811985015869, 11.993830680847168, -1.8374013900756836
415, 2414001099, 174.17721557617188, -55.4594841003418, 134.83108520507812, -0.3542669, -0.12140185, -1.7387972, 15.997790336608887, -1.3350423574447632, 9.298614501953125
416, 2414051100, 176.48353576660156, -54.97861099243164, 133.10621643066406, -0.68723774, 0.2051032, -3.9176822, 17.995319366455078, -10.866926193237305, 19.406898498535156
417, 2414101101, 177.1068115234375, -55.57915115356445, 132.87977600097656, -0.65982497, 0.23915792, -5.434123, 8.94778823852539, 12.166373252868652, 3.824258804321289
418, 2414151102, 177.00265502929688, -58.628761291503906, 133.19589233398438, -0.28268752, -0.79625416, -7.314462, 3.430999994277954, 61.40614700317383, 0.2826935350894928
419, 2414201103, 178.131591796875, -60.6086540222168, 132.48516845703125, 0.15080966, 0.040593192, -4.475505, 10.520560264587402, 39.57579803466797, 9.440757751464844
420, 2414251104, 178.3369598388672, -61.09335708618164, 132.3166046142578, 0.33488053, 0.2774101, -2.436854, 1.370849370956421, 9.960408210754395, 2.5179052352905273
421, 2414301105, 177.45252990722656, -61.20514678955078, 133.0404815673828, -0.08933992, -0.18343161, -1.336299, -4.800756454467773, 2.8133413791656494, -6.3199896812438965
422, 2414351106, 177.5164337158203, -60.472496032714844, 132.93914794921875, 0.124207936, 0.08922358, 0.30168152, -0.284554660320282, -14.359224319458008, 0.9227611422538757
423, 2414401107, 177.4661407470703, -60.041473388671875, 132.92166137695312, -0.15110907, -0.04079022, 0.4437828, -1.1029577255249023, -8.295933723449707, 0.3761211633682251
424, 2414451108, 177.2423095703125, -60.01145553588867, 133.07342529296875, -0.26394063, -0.018209824, 0.9170494, -1.6412147283554077, -0.2056315541267395, -0.9624698162078857
425, 2414501109, 177.51380920410156, -60.287410736083984, 132.9201202392578, -0.28427204, -0.055097956, -0.306242, 2.9779181480407715, 5.768600940704346, 2.3553578853607178
426, 2414551110, 177.56997680664062, -60.676048278808594, 132.95980834960938, 8.001764E-4, -0.070209, -2.8723645, 2.0202295780181885, 8.107941627502441, 0.5212771892547607
427, 2414601111, 177.8768768310547, -59.957313537597656, 132.7049102783203, -0.084276006, 0.33821768, -1.6556883, 1.9140583276748657, -14.137208938598633, 2.530240058898926
428, 2414651112, 177.7008514404297, -59.56045150756836, 132.6904754638672, -0.5650919, -0.05836795, -1.578248, -3.563765048980713, -7.611364841461182, 0.41702258586883545
429, 2414701113, 177.6587677001953, -59.41408920288086, 132.63746643066406, 0.7604876, -0.13080359, -2.5533323, -1.5488940477371216, -2.6221861839294434, 0.9964516162872314
430, 2414751114, 177.8228302001953, -58.05986022949219, 132.3828582763672, -0.5119493, 0.11729502, 0.40732765, -0.867739737033844, -26.840164184570312, 2.1504337787628174
431, 2414801115, 177.5458221435547, -57.799163818359375, 132.608154296875, -0.06065583, -0.3969456, -1.6941347, -1.5159997940063477, -4.786893367767334, -2.024506092071533
432, 2414851116, 177.9122314453125, -57.62217330932617, 132.31044006347656, 0.88381135, 0.14979447, -1.7144213, 2.497955322265625, -3.337444305419922, 3.6150543689727783
433, 2414901117, 177.7069091796875, -56.51995086669922, 132.29493713378906, -0.50763613, 0.47689104, 1.0340786, -4.162524700164795, -21.707571029663086, -0.09680041670799255
434, 2414951118, 177.47201538085938, -57.51884078979492, 132.4314422607422, 0.5786339, -0.31847557, -2.2956862, -2.2002198696136475, 20.346349716186523, -0.06794285029172897
435, 2415001119, 177.248046875, -57.02116012573242, 132.57008361816406, -0.23194431, 0.40017748, 0.30757523, -1.9447269439697266, -9.54793930053711, -1.3771436214447021
436, 2415051120, 177.58474731445312, -56.19084930419922, 132.19943237304688, -0.1265642, 0.023689914, 0.14888859, 0.7521749138832092, -16.449182510375977, 3.904857635498047
437, 2415101121, 177.7984161376953, -56.048099517822266, 131.9451141357422, -0.58031386, -0.2355004, 1.3825426, 0.2542744576931, -2.643425941467285, 3.297107219696045
438, 2415151122, 178.0377960205078, -55.37489700317383, 131.63922119140625, -0.34342587, -0.33380923, 1.295145, -0.06017739698290825, -13.257635116577148, 3.5324435234069824
439, 2415201123, 178.50363159179688, -55.80796813964844, 131.19342041015625, 0.043964997, 0.4027748, 2.8987885, 2.16225528717041, 8.828872680664062, 5.875491619110107
440, 2415251124, 177.90257263183594, -55.891136169433594, 131.5750732421875, -0.28086236, -0.41049072, 1.6726637, -5.496305465698242, 2.1203997135162354, -3.655261993408203
441, 2415301125, 177.60174560546875, -56.7901496887207, 131.8250274658203, 0.030123064, -0.5819058, -0.484787, -1.6523656845092773, 18.399044036865234, -1.4870893955230713
442, 2415351126, 176.8700714111328, -56.502723693847656, 132.30516052246094, -0.19916613, 0.22264774, 1.1583261, -6.408721446990967, -5.162647247314453, -4.975020885467529
443, 2415401127, 175.67462158203125, -58.31877136230469, 133.31643676757812, 0.7531763, 0.1948815, -0.63099957, -6.661192893981934, 37.275089263916016, -7.933910369873047
444, 2415451128, 174.6315155029297, -58.61511993408203, 134.03309631347656, -0.112077445, 0.25652134, 1.313077, -8.439926147460938, 6.863358974456787, -6.3923726081848145
445, 2415501129, 174.6342010498047, -58.325408935546875, 133.89773559570312, 0.2844513, -0.19053228, 0.22381496, -2.0455217361450195, -5.5766754150390625, 1.4431744813919067
446, 2415551130, 174.8053741455078, -57.31660461425781, 133.59239196777344, 0.016236428, 0.3708708, 3.1580915, -1.5418957471847534, -20.063800811767578, 1.9601095914840698
447, 2415601131, 174.23265075683594, -57.15511703491211, 133.93736267089844, -0.056033358, -0.07999641, 2.8229551, -5.444350242614746, -2.5339488983154297, -3.447593927383423
448, 2415651132, 173.33309936523438, -57.490966796875, 134.7412567138672, 0.47574642, 0.7056606, 4.122795, -4.253467082977295, 7.941091537475586, -7.3218512535095215
449, 2415701133, 172.81585693359375, -56.33096694946289, 135.10765075683594, -0.3513351, 0.5092327, 4.14882, -3.9951679706573486, -22.225082397460938, -6.190115928649902
450, 2415751134, 172.27056884765625, -56.42867660522461, 135.65773010253906, -0.27662143, 0.13778311, 2.0892067, -1.5378049612045288, 3.0490262508392334, -5.205192565917969
451, 2415801135, 172.27474975585938, -54.497596740722656, 135.73983764648438, -1.137313, 1.1465119, 5.7626257, 1.6449857950210571, -37.82624816894531, -5.53581428527832
452, 2415851136, 171.81338500976562, -55.6929931640625, 136.3321075439453, -0.2009272, -0.26510647, 0.3864193, 0.6965191960334778, 24.931488037109375, -2.8241894245147705
453, 2415901137, 172.09732055664062, -56.042503356933594, 136.3346710205078, -0.22723043, 0.9930017, 2.6701975, 5.9289703369140625, 7.238845348358154, 1.5290075540542603
454, 2415951138, 173.6419677734375, -55.85237503051758, 135.27899169921875, -0.34161654, -0.09318523, -1.1481266, 13.613371849060059, -4.92888069152832, 11.835775375366211
455, 2416001139, 177.86349487304688, -55.465309143066406, 132.03359985351562, -0.22240143, 0.4632955, -3.8397903, 31.03519058227539, -10.117757797241211, 36.518035888671875
456, 2416051140, -179.0447998046875, -54.98684310913086, 129.64041137695312, 0.01284149, 0.057389688, -6.5047045, 22.722976684570312, -9.538384437561035, 27.776458740234375
457, 2416101141, -178.76589965820312, -55.95486831665039, 129.29864501953125, -0.54684526, -0.5652437, -6.144248, 0.1534092128276825, 19.7392635345459, 4.085290431976318
458, 2416151142, -178.229736328125, -57.60259246826172, 128.9685821533203, 0.8670565, -0.39890218, -3.9180617, 5.4072747230529785, 33.34815216064453, 3.3319854736328125
459, 2416201143, -178.31092834472656, -58.25043487548828, 129.01283264160156, 0.2479807, -0.2623346, -1.5092592, -0.66590815782547, 13.249690055847168, -0.2811520993709564
460, 2416251144, -179.276123046875, -58.568946838378906, 129.7810516357422, -0.30528182, -0.33138087, -1.1408396, -6.006958961486816, 6.513847351074219, -7.6019110679626465
461, 2416301145, 179.73370361328125, -57.6034049987793, 130.52870178222656, -0.41866884, -0.45364615, 0.5676117, -6.903772354125977, -19.023906707763672, -7.248196125030518
462, 2416351146, 179.46731567382812, -56.656673431396484, 130.66737365722656, 0.3490119, 0.0560271, 1.6142006, -2.7913198471069336, -18.604951858520508, -1.059421420097351
463, 2416401147, 179.13230895996094, -56.77265548706055, 130.93296813964844, -0.021187687, -0.2890911, 0.3422737, -2.0546815395355225, 2.6750447750091553, -2.3084824085235596
464, 2416451148, 179.07818603515625, -57.126922607421875, 131.01898193359375, -0.21265, -0.47002608, -0.2965727, 0.5647481679916382, 7.420016288757324, -0.24929307401180267
465, 2416501149, 179.44723510742188, -57.19089126586914, 130.7911834716797, 0.17512687, -0.12733175, -0.17624187, 3.757716655731201, 1.5699337720870972, 3.0640172958374023
466, 2416551150, 179.20730590820312, -57.33567428588867, 130.98385620117188, 0.15625769, -0.3484253, -1.1105585, -1.3522100448608398, 3.2436721324920654, -1.4733538627624512
467, 2416601151, 178.58053588867188, -57.65250778198242, 131.47914123535156, -0.033005264, -0.2528182, -0.76838493, -3.9774274826049805, 6.763216972351074, -4.623305320739746
468, 2416651152, 177.97950744628906, -57.9206657409668, 131.96963500976562, 0.59019357, -0.21456552, -1.411933, -3.5153756141662598, 5.844367027282715, -4.489933013916016
469, 2416701153, 177.30796813964844, -57.827880859375, 132.5074462890625, -0.0036117458, -0.37751138, -1.1682892, -4.1171875, -1.290514588356018, -5.214940547943115
470, 2416751154, 177.49244689941406, -57.5524787902832, 132.33546447753906, 0.42164916, -0.42852116, -1.8473153, 0.9884867668151855, -5.25706672668457, 2.162292242050171
471, 2416801155, 177.7493896484375, -56.416011810302734, 132.10398864746094, -0.18252648, -0.24757859, -0.76382923, 1.4598344564437866, -22.483200073242188, 2.153343439102173
472, 2416851156, 177.22821044921875, -55.19854736328125, 132.37008666992188, 0.7658079, -0.02795387, -1.8420763, -5.816095352172852, -23.86281394958496, -3.477926254272461
473, 2416901157, 177.00843811035156, -55.11943435668945, 132.59072875976562, -0.052823488, 0.30216247, -0.2813816, -0.5733189582824707, -1.1211062669754028, -2.0187931060791016
474, 2416951158, 176.35757446289062, -54.452816009521484, 133.05984497070312, -0.19649315, 0.026925264, -0.8124161, -5.144482135772705, -12.664460182189941, -5.594291687011719
475, 2417001159, 176.7007293701172, -54.912330627441406, 132.88743591308594, -0.120674424, 0.4617193, -0.30507946, 4.251200199127197, 9.385445594787598, 3.1264615058898926
476, 2417051160, 176.72943115234375, -54.23555374145508, 132.88999938964844, -0.68647957, 0.592251, 0.24072456, 0.8229406476020813, -13.179901123046875, -0.22578361630439758
477, 2417101161, 176.4021759033203, -54.626991271972656, 133.14010620117188, 0.38276014, -0.058961377, -1.7051563, -2.2708656787872314, 8.317874908447266, -1.854897379875183
478, 2417151162, 176.32192993164062, -54.370792388916016, 133.1575927734375, -0.8496018, -0.10701107, 0.940012, -1.1161552667617798, -4.7711405754089355, 0.052521005272865295
479, 2417201163, 176.3389892578125, -54.17081832885742, 133.0198974609375, -0.09010724, -0.5678181, -0.99343777, -1.6862045526504517, -3.765923023223877, 1.92757248878479
480, 2417251164, 177.35289001464844, -53.22988510131836, 132.19395446777344, 0.079338156, 0.51253843, 1.5298986, 7.166441917419434, -18.998214721679688, 9.308107376098633
481, 2417301165, 177.4533233642578, -53.136146545410156, 132.04351806640625, -0.19375063, -0.2760507, 0.70251656, -0.19531391561031342, -1.6260223388671875, 2.2950711250305176
482, 2417351166, 177.80902099609375, -53.419464111328125, 131.84075927734375, -0.41160694, 0.1748068, 1.1338549, 4.066251754760742, 5.889033794403076, 3.2349772453308105
483, 2417401167, 177.24212646484375, -53.67656707763672, 132.2451171875, -0.57533574, 0.27126035, 1.1953068, -4.628399848937988, 5.671766757965088, -4.000016212463379
484, 2417451168, 176.7897491455078, -55.838558197021484, 132.7735595703125, 0.17835417, 0.29357478, 0.7521553, -0.21233798563480377, 43.824005126953125, -3.261132001876831
485, 2417501169, 176.72488403320312, -55.8455696105957, 132.8526153564453, -0.11028956, -0.18504883, -0.40557098, 0.2208540141582489, 0.5162751078605652, -0.3022170066833496
486, 2417551170, 177.04359436035156, -55.43987274169922, 132.57989501953125, -0.19435368, 0.4488196, 1.2241373, 2.072373628616333, -7.9425950050354, 3.211710214614868
487, 2417601171, 177.48252868652344, -56.2142219543457, 132.3368682861328, -0.27887577, 0.49707416, 1.1541815, 4.9626994132995605, 15.664422988891602, 4.04447603225708
488, 2417651172, 176.9723358154297, -57.98240661621094, 132.8378448486328, -0.081203595, -0.2277093, -0.62243366, -1.5853676795959473, 35.90970993041992, -3.146923303604126
489, 2417701173, 176.5962677001953, -58.12710189819336, 133.13079833984375, 0.08148433, 0.43607578, 2.1292105, -2.3419673442840576, 3.3877112865448, -2.3545944690704346
490, 2417751174, 176.32395935058594, -58.98649978637695, 133.4141387939453, 0.49291468, -0.107776605, 1.161232, -0.4047059714794159, 17.66257095336914, -1.3096970319747925
491, 2417801175, 176.0628204345703, -57.84648513793945, 133.5968017578125, -0.19770525, 0.595177, 5.4331427, -1.902093529701233, -22.297122955322266, -2.842120409011841
492, 2417851176, 176.27760314941406, -58.82337188720703, 133.57716369628906, 1.0901453, -0.29506928, 0.94797707, 4.170537948608398, 19.80553436279297, 2.0926167964935303
493, 2417901177, 176.1439666748047, -57.9610595703125, 133.6929931640625, -0.54128, 0.91785616, 6.238329, -0.49628886580467224, -16.80150032043457, -1.7653367519378662
494, 2417951178, 175.79440307617188, -58.51864242553711, 134.2673797607422, -0.3249932, 0.19292678, 2.8013954, 2.988255739212036, 11.87259292602539, -4.66464376449585
495, 2418001179, 175.23643493652344, -58.84699249267578, 135.0850830078125, -1.0343214, 0.5002857, 2.9144907, 3.018843412399292, 7.533397197723389, -7.376646041870117
496, 2418051180, 174.67782592773438, -58.011295318603516, 135.70257568359375, -0.877905, -0.0061477236, 0.56214046, -0.43685004115104675, -15.760441780090332, -7.3292155265808105
497, 2418101181, 174.7987823486328, -57.77493667602539, 135.8842315673828, -1.0332355, 0.78433514, 2.5136414, 5.701483249664307, -4.214162349700928, -1.7748602628707886
498, 2418151182, 175.53955078125, -57.601806640625, 135.39295959472656, -0.71191114, -0.29168808, -1.3879404, 6.723217964172363, -3.578902244567871, 5.519109725952148
499, 2418201183, 177.9727325439453, -55.59479904174805, 133.57501220703125, -0.09791477, 0.121035956, -3.2723875, 18.511680603027344, -40.89102554321289, 18.289051055908203
500, 2418251184, -179.21511840820312, -54.76938247680664, 131.37144470214844, -0.16396664, 0.09778904, -4.711581, 20.261964797973633, -16.46615219116211, 25.558927536010742
501, 2418301185, -177.76748657226562, -54.78763961791992, 130.2262420654297, 0.012923519, 0.11739336, -5.4882903, 10.446647644042969, 1.0228828191757202, 13.770987510681152
502, 2418351186, -177.85206604003906, -56.13227844238281, 130.19973754882812, 0.432402, -0.10179003, -4.864641, -1.9224705696105957, 27.194374084472656, -0.150905042886734
503, 2418401187, -178.7761688232422, -57.78683090209961, 130.84706115722656, 0.37824607, -0.5695918, -3.7976975, -7.421107292175293, 33.18009567260742, -7.453658103942871
504, 2418451188, -179.74075317382812, -57.10673522949219, 131.51800537109375, 0.5085018, -0.29987863, -1.1774855, -7.772238731384277, -13.379278182983398, -6.468745231628418
505, 2418501189, 179.72457885742188, -56.75442123413086, 131.89866638183594, 0.5912394, -0.33328295, 0.05221653, -4.108879566192627, -6.726917266845703, -3.578998565673828
506, 2418551190, 178.5743408203125, -56.038238525390625, 132.73764038085938, 0.04663866, -0.13937564, 1.0965176, -8.823226928710938, -13.862387657165527, -8.92138957977295
507, 2418601191, 178.10340881347656, -56.65666961669922, 133.1938018798828, 0.23592329, -0.40204984, -0.2243433, -1.61831796169281, 12.832090377807617, -4.118447780609131
508, 2418651192, 177.88827514648438, -56.82262420654297, 133.43838500976562, -0.060025297, 0.103543945, 0.22543335, -0.007107527926564217, 3.7345917224884033, -1.9886349439620972
509, 2418701193, 177.7038116455078, -57.01007843017578, 133.71885681152344, -0.112375386, 0.22255442, -0.9572048, 1.2159788608551025, 4.18911600112915, -2.338859796524048
510, 2418751194, 177.49913024902344, -56.76227569580078, 133.9373321533203, -0.092448086, 0.33057576, -1.1394987, -0.2275732308626175, -4.528319358825684, -2.0161476135253906
511, 2418801195, 177.0466766357422, -56.677001953125, 134.34523010253906, -0.11150167, 0.34564558, -1.4347229, -2.025099039077759, -1.167120099067688, -3.9756696224212646
512, 2418851196, 176.09146118164062, -56.27409362792969, 135.01382446289062, -0.41140935, 0.003787427, -1.497613, -7.751112937927246, -7.278517723083496, -7.277323246002197
513, 2418901197, 176.08407592773438, -56.50282287597656, 135.0293426513672, -0.26712906, -0.007922193, -0.7590904, 0.3170107305049896, 4.898241996765137, 0.7163727283477783
514, 2418951198, 176.0026092529297, -55.91102600097656, 135.05010986328125, 0.98562574, -0.1209708, -1.7639647, -1.07729172706604, -11.467500686645508, -0.47147199511528015
515, 2419001199, 175.68089294433594, -55.18262481689453, 135.2009735107422, -0.15384665, -0.38562635, -1.7209015, -3.7421557903289795, -14.078887939453125, -2.1823105812072754
516, 2419051200, 175.6298370361328, -55.77488327026367, 135.28329467773438, 0.70936555, -0.14273024, -2.6498704, 0.539642870426178, 12.20773696899414, 0.5432841181755066
517, 2419101201, 175.305419921875, -56.23882293701172, 135.60235595703125, 0.2533021, 0.29821488, -0.8853779, -0.993703305721283, 9.859919548034668, -2.2467870712280273
518, 2419151202, 174.6925811767578, -55.14663314819336, 135.932861328125, -0.48607227, -0.4509395, -0.53849506, -6.58674955368042, -21.107847213745117, -5.039807319641113
519, 2419201203, 175.5327606201172, -54.88148498535156, 135.24822998046875, 1.0683582, -0.025594413, -1.4497423, 5.788780689239502, -5.623106956481934, 7.948197364807129
520, 2419251204, 175.46714782714844, -52.76687240600586, 134.9329833984375, -0.29755655, 0.32105938, 1.6861553, -6.196806907653809, -42.123878479003906, 0.971129298210144
521, 2419301205, 176.1629638671875, -54.07176208496094, 134.4361572265625, 0.54995185, -0.024892079, -0.9063091, 6.140234470367432, 25.9250431060791, 8.389836311340332
522, 2419351206, 176.20001220703125, -54.561397552490234, 134.26478576660156, -0.20487131, 0.30749416, 0.6508093, -1.8381872177124023, 9.968558311462402, 3.227113962173462
523, 2419401207, 176.35763549804688, -55.815040588378906, 134.09112548828125, 0.5175972, 0.06461, -0.6459894, 0.506251871585846, 25.21977996826172, 4.185972213745117
524, 2419451208, 176.3587646484375, -55.91954803466797, 133.91468811035156, -0.6509184, 0.6344622, 1.7877083, -2.6927666664123535, 2.290158271789551, 2.688849925994873
525, 2419501209, 176.13380432128906, -56.70176696777344, 133.93756103515625, 0.4423107, -0.06541867, -0.88286877, -3.9098074436187744, 15.954404830932617, 1.3499586582183838
526, 2419551210, 175.87315368652344, -56.90476989746094, 133.90792846679688, -0.43769246, 0.1778258, 1.808074, -5.505709648132324, 4.3557209968566895, 1.1878142356872559
527, 2419601211, 175.9246063232422, -56.10681915283203, 133.55433654785156, 0.9390548, -0.4537151, -0.48297977, -4.657497406005859, -15.871050834655762, 3.3294758796691895
528, 2419651212, 176.68728637695312, -54.443058013916016, 132.62417602539062, -0.09007438, 0.80273473, 4.1081333, 0.16418582201004028, -33.558990478515625, 9.013477325439453
529, 2419701213, 177.06607055664062, -54.06266403198242, 132.21632385253906, -0.3341979, 0.3381664, 2.9506931, 1.1651439666748047, -7.529926776885986, 4.923659324645996
530, 2419751214, 177.16708374023438, -56.008941650390625, 132.22113037109375, 0.22283079, 0.16724904, 1.3901844, 2.302722454071045, 39.203895568847656, 2.4861867427825928
531, 2419801215, 176.72474670410156, -56.6799201965332, 132.46810913085938, -0.63219076, 0.29615042, 2.9003239, -4.526306629180908, 13.86958122253418, -1.4373047351837158
532, 2419851216, 176.11727905273438, -56.412479400634766, 132.7595977783203, -0.2822193, -0.5931539, 1.372818, -7.074539661407471, -4.81540060043335, -2.960566520690918
533, 2419901217, 175.99449157714844, -55.79789733886719, 132.84625244140625, -0.6377491, 0.09884592, 3.658369, -0.8127842545509338, -11.873882293701172, -1.2284845113754272
534, 2419951218, 175.29835510253906, -54.800533294677734, 133.46273803710938, -1.2837328, 0.24001245, 4.0051517, -3.57708477973938, -19.03502655029297, -7.935004711151123
535, 2420001219, 174.20654296875, -55.43290710449219, 134.6934051513672, -0.34611517, -0.102103285, 1.5232925, -1.4387710094451904, 14.199727058410645, -12.284529685974121
536, 2420051220, 172.81661987304688, -54.15535354614258, 136.01876831054688, -1.1091839, 0.52225477, 3.769309, -5.931333065032959, -23.341108322143555, -17.497983932495117
537, 2420101221, 171.7850799560547, -54.088417053222656, 137.133544921875, -0.08234016, 0.066162966, 0.56646633, -2.3569564819335938, 0.737959086894989, -12.556929588317871
538, 2420151222, 171.73802185058594, -52.763916015625, 137.4376983642578, -0.05424883, 0.9139761, 2.3195534, 4.150303840637207, -25.383630752563477, -6.812028884887695
539, 2420201223, 172.12210083007812, -52.805755615234375, 137.40895080566406, -0.15329972, 0.34288016, -0.80265903, 7.431441307067871, 1.090276837348938, 1.0326439142227173
540, 2420251224, 173.97947692871094, -52.50017547607422, 136.19976806640625, 0.47186503, 0.28452048, -5.070726, 18.130634307861328, -7.53272008895874, 14.394951820373535
541, 2420301225, 177.04095458984375, -51.84688186645508, 133.83677673339844, 0.01551191, 0.9579821, -5.291868, 24.101398468017578, -14.98295783996582, 28.44534683227539
542, 2420351226, 177.28614807128906, -52.046817779541016, 133.64674377441406, 0.8607839, 0.39794913, -6.4433327, 2.1193695068359375, 4.1847453117370605, 3.114018201828003
543, 2420401227, 176.7452392578125, -52.17858123779297, 133.90736389160156, 0.5819028, 0.08707914, -4.688476, -6.495711803436279, 3.106853485107422, -2.480466365814209
544, 2420451228, 175.96063232421875, -51.2404899597168, 134.25086975097656, 0.3588505, -0.25109154, -2.1203117, -10.088652610778809, -18.14278793334961, -4.861974716186523
545, 2420501229, 176.28282165527344, -50.08482360839844, 133.8258056640625, 0.27465406, -0.16380717, -0.24791908, 0.077537402510643, -23.11056900024414, 4.395239353179932
546, 2420551230, 176.89727783203125, -49.324928283691406, 133.25848388671875, 0.11048156, -0.032362554, 0.28499603, 3.8422675132751465, -15.291449546813965, 7.004128932952881
547, 2420601231, 177.2255096435547, -49.04850769042969, 132.93833923339844, 0.043010376, -0.42563784, -0.5065174, 1.9280266761779785, -5.417730331420898, 4.479141712188721
548, 2420651232, 177.52198791503906, -49.455787658691406, 132.67733764648438, 0.42247748, 0.14141688, 0.5907173, 2.181267261505127, 8.299932479858398, 4.361016273498535
549, 2420701233, 177.18130493164062, -49.96549606323242, 132.89134216308594, 0.059918907, -0.47382802, -0.32220936, -3.3401098251342773, 10.631278038024902, -1.710943579673767
550, 2420751234, 177.71055603027344, -50.01190948486328, 132.3975067138672, 0.38534662, 0.027935768, -0.53236866, 3.228290319442749, 0.9659249186515808, 6.967486381530762
551, 2420801235, 178.21084594726562, -49.71868896484375, 131.9007110595703, -0.067809805, -0.32551074, -0.7178192, 2.6161627769470215, -5.764575481414795, 6.774980545043945
552, 2420851236, 178.51144409179688, -50.115699768066406, 131.59225463867188, 0.116285965, -0.372849, -1.6348085, 1.4989659786224365, 8.147562980651855, 4.780627727508545
553, 2420901237, 178.46307373046875, -49.548133850097656, 131.43350219726562, -0.25973392, -0.31855056, -0.5359192, -3.1868693828582764, -11.075021743774414, 2.3303494453430176
554, 2420951238, 178.3883514404297, -48.871761322021484, 131.33193969726562, -0.26818782, -0.5296979, 0.53828526, -2.8263134956359863, -13.230508804321289, 1.5371527671813965
555, 2421001239, 178.5117645263672, -48.349552154541016, 131.12132263183594, 0.78379244, -0.83044887, -0.5474949, -0.48721927404403687, -10.186159133911133, 3.081784248352051
556, 2421051240, 178.3218231201172, -47.145076751708984, 131.0722198486328, 0.038655672, -0.6856401, -0.5741911, -4.32288932800293, -23.76557731628418, 0.5751502513885498
557, 2421101241, 178.6464385986328, -48.26724624633789, 130.84530639648438, 0.75562453, -0.31444195, -1.9321537, 3.337095260620117, 22.6875, 4.226754665374756
558, 2421151242, 178.27345275878906, -48.195030212402344, 131.06341552734375, -0.44884956, -0.22837414, -1.1937027, -4.002545356750488, -1.0305317640304565, -2.363891363143921
559, 2421201243, 177.49588012695312, -48.44866180419922, 131.5880126953125, 0.8374713, -0.15346634, -1.5551233, -7.511875629425049, 5.660217761993408, -6.205080986022949
560, 2421251244, 176.9381561279297, -47.653751373291016, 131.96180725097656, -0.91501826, 0.50286484, 2.108653, -5.393460750579834, -15.300496101379395, -5.184125900268555
561, 2421301245, 176.30763244628906, -49.94011688232422, 132.53268432617188, -0.21245107, -1.0074465, -2.0599623, -3.815032482147217, 46.42338562011719, -4.236966609954834
562, 2421351246, 175.7450408935547, -51.32741165161133, 133.20596313476562, 0.021209816, 0.16737421, -1.2509918, -0.6395834684371948, 28.603954315185547, -6.020791053771973
563, 2421401247, 174.7543182373047, -50.1734619140625, 133.89010620117188, -0.8999193, 0.05709236, -0.0027666092, -9.013225555419922, -21.94884490966797, -9.963583946228027
564, 2421451248, 174.75979614257812, -51.37340545654297, 134.02354431152344, -0.0970158, 0.47914183, -0.27484226, 2.375556468963623, 24.384780883789062, 1.088122844696045
565, 2421501249, 174.2223358154297, -51.14960861206055, 134.43995666503906, -0.38992327, 0.17242214, -0.079063416, -4.046826362609863, -3.6222355365753174, -5.043610095977783
566, 2421551250, 174.2855682373047, -51.922454833984375, 134.51629638671875, 0.1526761, 0.399936, -0.21609592, 2.6603806018829346, 15.806817054748535, 1.1783366203308105
567, 2421601251, 174.2144317626953, -50.1597785949707, 134.5330047607422, -0.5608687, 1.0941299, 2.8396454, -0.9580798149108887, -34.722076416015625, -3.16627836227417
568, 2421651252, 174.20330810546875, -51.08256530761719, 134.63330078125, 0.86213017, 0.5166063, -0.89256096, 1.5301262140274048, 18.820571899414062, 1.1742210388183594
569, 2421701253, 174.59967041015625, -50.2346305847168, 134.3429412841797, -0.58374566, 1.5620852, 2.7528677, 3.6395676136016846, -16.906227111816406, 2.589197874069214
570, 2421751254, 174.12367248535156, -51.29538345336914, 134.7586669921875, 0.49058858, -0.011381056, -0.73575974, -2.871997117996216, 21.955974578857422, -2.5685203075408936
571, 2421801255, 174.1023712158203, -51.663002014160156, 134.71913146972656, 0.13146406, 0.5258664, 1.4828854, -0.8395772576332092, 7.590597629547119, 1.8274822235107422
572, 2421851256, 174.3192596435547, -51.81657409667969, 134.5291748046875, 0.24557436, 0.17170745, 0.48846817, 1.5639657974243164, 3.1452393531799316, 3.2333855628967285
573, 2421901257, 174.44776916503906, -51.98199462890625, 134.3970947265625, 0.3060089, 0.20156029, 0.86614895, 0.6986229419708252, 3.459071159362793, 2.5309946537017822
574, 2421951258, 174.02117919921875, -52.457664489746094, 134.65286254882812, -0.29305455, 0.19967228, 2.2412615, -4.281121253967285, 10.106732368469238, -1.5767686367034912
575, 2422001259, 173.328369140625, -52.843990325927734, 134.98428344726562, 0.35081297, -0.8597417, 0.5418482, -8.375847816467285, 8.44830322265625, -2.5617001056671143
576, 2422051260, 173.20431518554688, -52.24815368652344, 134.95359802246094, -0.6405528, 0.24147244, 4.505992, -2.7631657123565674, -11.549726486206055, -0.44187650084495544
577, 2422101261, 172.1824493408203, -52.32880401611328, 135.61215209960938, -0.35986793, 0.14567122, 3.7295303, -9.809233665466309, 2.9525249004364014, -7.202651500701904
578, 2422151262, 171.37179565429688, -53.146610260009766, 136.36752319335938, -0.039552405, 0.57491195, 3.6907196, -3.9835124015808105, 17.822906494140625, -6.131196022033691
579, 2422201263, 169.81092834472656, -53.34465789794922, 137.67735290527344, -0.6034711, -0.021670252, 3.0820665, -10.018960952758789, 6.796017646789551, -14.236577987670898
580, 2422251264, 168.62228393554688, -54.10162353515625, 138.91302490234375, -0.16136138, -0.13897566, 1.2860975, -3.641584873199463, 17.93145179748535, -10.951837539672852
581, 2422301265, 168.38616943359375, -53.749752044677734, 139.1949920654297, -0.98769903, 0.4609786, 2.2749119, 0.04344774782657623, -5.910455703735352, -4.077932357788086
582, 2422351266, 168.72267150878906, -53.74515914916992, 139.06167602539062, -0.46554172, 0.35509905, -0.2748127, 4.788569927215576, -0.0815594345331192, 2.104449987411499
583, 2422401267, 169.7235565185547, -53.738155364990234, 138.40853881835938, -0.4926451, 0.84131664, -0.88439465, 9.692789077758789, -1.2631264925003052, 8.139448165893555
584, 2422451268, 171.33407592773438, -55.0275993347168, 137.28163146972656, 0.35568678, 0.4430766, -5.0928288, 14.095379829406738, 23.592084884643555, 17.766887664794922
585, 2422501269, 172.91189575195312, -56.77586364746094, 136.3041534423828, 0.40631023, 0.44244623, -6.2768726, 15.573772430419922, 33.44618225097656, 16.226716995239258
586, 2422551270, 173.4253387451172, -58.200286865234375, 135.87161254882812, 0.4422149, -0.17277917, -6.0089927, 3.1844890117645264, 28.045894622802734, 8.585186004638672
587, 2422601271, 173.18829345703125, -58.29795455932617, 135.94522094726562, 0.43236747, -0.18640305, -3.8562584, -3.2778160572052, 2.3450162410736084, 0.03982989490032196
588, 2422651272, 172.3096160888672, -57.94627380371094, 136.4032440185547, 0.23822346, -0.5485, -1.3947134, -9.582682609558105, -6.05054235458374, -5.10371732711792
589, 2422701273, 171.34454345703125, -57.6577262878418, 137.13018798828125, 0.96816045, -0.5165483, -0.03235531, -6.787502765655518, -4.2921929359436035, -7.904281139373779
590, 2422751274, 171.19187927246094, -57.10417175292969, 137.19479370117188, 0.43433195, -0.2965534, 1.214139, -1.7545616626739502, -10.515520095825195, -1.7846311330795288
591, 2422801275, 171.6066131591797, -56.89457321166992, 136.93321228027344, 0.0070194243, -0.42744842, 0.28644085, 4.117564678192139, -4.249156475067139, 2.7744884490966797
592, 2422851276, 172.57763671875, -56.23459243774414, 136.17587280273438, 0.069879316, -0.16256131, 0.31869984, 6.9895710945129395, -13.898584365844727, 7.035080909729004
593, 2422901277, 172.864990234375, -56.182395935058594, 136.00433349609375, -0.08307976, -0.24807312, -0.4540882, 3.1044671535491943, -0.9537532329559326, 2.3448541164398193
594, 2422951278, 173.08782958984375, -56.24094772338867, 135.909912109375, -0.07726485, -0.20666745, -0.7154684, 3.0961902141571045, 1.3576507568359375, 1.7696267366409302
595, 2423001279, 173.16500854492188, -55.762939453125, 135.84814453125, 0.022932876, -0.093331076, 0.110616684, 0.727799654006958, -9.250832557678223, 0.1251482516527176
596, 2423051280, 173.05355834960938, -55.438663482666016, 135.93006896972656, -0.06859903, -0.15226206, 0.09236336, -0.6687184572219849, -6.0036749839782715, -1.114661693572998
597, 2423101281, 173.04165649414062, -55.46143341064453, 136.01834106445312, 0.09688035, -0.115037315, -0.87726116, 1.4244312047958374, 0.8965661525726318, -0.3566398024559021
598, 2423151282, 173.10000610351562, -55.34111022949219, 135.9833526611328, 0.021309502, -0.14834666, -1.125164, 0.7992038726806641, -2.1127917766571045, 0.6863585710525513
599, 2423201283, 173.4776153564453, -54.732818603515625, 135.6173553466797, 0.31741053, -0.4710177, -1.8570104, 1.763163685798645, -12.24809455871582, 3.3258578777313232
600, 2423251284, 173.5896453857422, -54.24519729614258, 135.4857177734375, 1.6517607E-4, -0.4148198, -1.6792297, 0.303615927696228, -9.53528881072998, 1.0045990943908691
601, 2423301285, 173.41908264160156, -53.5969123840332, 135.5311279296875, -0.17316242, -0.29016766, -1.5154619, -2.4678306579589844, -12.494105339050293, -1.4150704145431519
602, 2423351286, 173.68861389160156, -53.31017303466797, 135.34591674804688, -0.19931254, -0.0013333665, -0.8039007, 2.6198647022247314, -5.615586757659912, 2.1320786476135254
603, 2423401287, 173.28250122070312, -51.6251335144043, 135.35687255859375, -0.48533782, -0.146019, -0.27237797, -7.738433837890625, -33.13689041137695, -3.372783660888672
604, 2423451288, 173.7393798828125, -52.200706481933594, 135.10064697265625, 0.31173912, 0.12832539, -1.3716087, 5.307421684265137, 11.412623405456543, 5.026453018188477
605, 2423501289, 173.5783233642578, -50.844276428222656, 135.04815673828125, -0.73842555, 0.08925923, 0.07017708, -3.834301233291626, -26.702293395996094, -1.7630354166030884
606, 2423551290, 173.85089111328125, -51.559539794921875, 134.8524169921875, 0.11346702, 0.36942646, -0.39400005, 2.6039702892303467, 14.28216552734375, 4.589011192321777
607, 2423601291, 173.7602081298828, -51.23451232910156, 134.88494873046875, -1.018542, 0.50696224, 0.78607273, -1.0985811948776245, -6.0877485275268555, -0.5219319462776184
608, 2423651292, 173.4101104736328, -51.555397033691406, 135.06178283691406, -0.0067427154, -0.2355821, -1.8845387, -4.03022575378418, 6.95340633392334, -0.8936202526092529
609, 2423701293, 173.82461547851562, -51.253204345703125, 134.69000244140625, -1.0798488, 0.7449954, 1.5489864, 2.6832449436187744, -6.193188190460205, 4.519922733306885
610, 2423751294, 173.04495239257812, -51.082176208496094, 135.10507202148438, -0.019875443, -0.33261478, -1.039484, -8.91733455657959, -2.4761972427368164, -4.982168674468994
611, 2423801295, 172.97775268554688, -51.582523345947266, 135.12437438964844, -0.6880511, 0.9344013, 2.3357716, -0.8397918939590454, 10.288836479187012, 1.5597949028015137
612, 2423851296, 172.71078491210938, -52.35521697998047, 135.31687927246094, 0.013224368, -0.25052595, 0.06814861, -2.095237970352173, 15.953389167785645, 0.14959004521369934
613, 2423901297, 173.1155242919922, -51.65203094482422, 134.88589477539062, -0.49068514, 0.30770838, 2.1424503, 1.5081440210342407, -14.285776138305664, 4.1097002029418945
614, 2423951298, 173.16946411132812, -50.13875198364258, 134.70069885253906, -0.16036294, 0.050345287, 1.4161816, -1.5861587524414062, -30.002906799316406, -0.7168729901313782
615, 2424001299, 172.93975830078125, -50.867794036865234, 134.8810272216797, 0.48092255, -0.2220961, -0.05840969, -1.6071656942367554, 15.074121475219727, 0.06566289067268372
616, 2424051300, 172.9344024658203, -50.890045166015625, 134.87567138671875, 0.014392446, 0.24368009, 1.3003769, 0.016279002651572227, 0.7572799921035767, 0.7006673812866211
617, 2424101301, 172.5545196533203, -51.532249450683594, 135.19183349609375, 0.28209257, -0.13383777, -0.07370281, -2.461928606033325, 13.565247535705566, -1.7269039154052734
618, 2424151302, 172.38694763183594, -51.31879425048828, 135.294677734375, 0.49097526, 0.2917216, 0.9212675, -1.5356742143630981, -3.7395882606506348, -1.250160813331604
619, 2424201303, 172.1483154296875, -51.14170455932617, 135.44476318359375, 0.16916935, 0.16096307, 1.455986, -2.225266456604004, -2.930474042892456, -1.7571771144866943
620, 2424251304, 172.1722869873047, -50.720088958740234, 135.4109344482422, 0.038552854, 0.56326693, 2.578537, 0.1623314917087555, -8.086560249328613, -0.14519014954566956
621, 2424301305, 171.7274932861328, -50.523284912109375, 135.79135131835938, 0.49022, 0.01013106, 1.2257223, -2.8059041500091553, -2.8963851928710938, -4.746699810028076
622, 2424351306, 171.35813903808594, -48.984615325927734, 135.96730041503906, -0.31252834, 0.5988529, 3.4932804, -4.490996360778809, -29.778993606567383, -6.189706802368164
623, 2424401307, 171.02914428710938, -47.93399429321289, 136.2119140625, 0.32663044, 0.1014646, 2.5298815, -2.707167863845825, -19.94303321838379, -5.8370280265808105
624, 2424451308, 170.88499450683594, -46.059783935546875, 136.27635192871094, -0.30360615, 0.46086806, 4.25887, -1.7315515279769897, -36.555084228515625, -6.171679973602295
625, 2424501309, 170.58767700195312, -45.566200256347656, 136.56507873535156, 0.008351785, -0.040198136, 2.8483114, -1.5949677228927612, -8.770986557006836, -4.973592281341553
626, 2424551310, 170.15792846679688, -45.175697326660156, 137.048095703125, -0.30359384, 0.17673326, 3.0294075, -1.5099414587020874, -6.242115497589111, -7.409367084503174
627, 2424601311, 170.0859832763672, -44.26780700683594, 137.10638427734375, -0.86826134, 0.7218582, 3.8600254, -0.40668249130249023, -17.424114227294922, -3.3450989723205566
628, 2424651312, 170.24310302734375, -44.356773376464844, 137.03021240234375, -0.6317491, 0.19168717, 1.8718252, 2.2890398502349854, 1.8865278959274292, 1.9639421701431274
629, 2424701313, 171.45364379882812, -44.83575439453125, 136.11476135253906, -0.27221644, 0.3067768, -0.18987465, 11.565384864807129, 7.701154708862305, 14.979504585266113
630, 2424751314, 174.85719299316406, -46.92647933959961, 133.6259765625, 0.5755586, -0.2655146, -6.1458335, 32.533573150634766, 37.69576644897461, 39.97173309326172
631, 2424801315, 178.47360229492188, -49.04023742675781, 131.03538513183594, -0.004478026, -0.024372607, -7.222474, 34.027915954589844, 40.49355697631836, 37.666709899902344
632, 2424851316, 179.7760467529297, -51.484230041503906, 129.96002197265625, 1.0207127, -0.1799022, -6.72994, 9.715279579162598, 48.976707458496094, 15.083267211914062
633, 2424901317, 178.89109802246094, -52.67510986328125, 130.38128662109375, 1.0503014, 0.048333, -4.532368, -10.840877532958984, 24.193513870239258, -4.310873031616211
634, 2424951318, 178.57846069335938, -53.4522705078125, 130.3225860595703, 0.22880921, -1.0608773, -4.538234, -6.976449012756348, 15.842103004455566, 1.6389529705047607
635, 2425001319, 178.53363037109375, -52.49099349975586, 129.98301696777344, -0.26225132, -0.22693594, -0.6062021, -6.1079020500183105, -19.002456665039062, 4.195605754852295
636, 2425051320, 178.532470703125, -51.470401763916016, 129.72848510742188, 0.29781827, 0.09469249, 0.47808456, -3.8212831020355225, -20.16575050354004, 3.2020211219787598
637, 2425101321, 177.8570556640625, -50.36418914794922, 130.0354461669922, -0.4045808, 0.6232168, 1.5852852, -8.533295631408691, -21.670631408691406, -3.974700450897217
638, 2425151322, 177.89871215820312, -50.58906936645508, 130.07476806640625, 0.2340764, 0.03093028, -0.8139181, 1.652355670928955, 4.829280376434326, 0.2551560401916504
639, 2425201323, 178.17776489257812, -48.83623504638672, 129.75489807128906, -0.49551034, 0.57986724, 0.58612823, 0.9126182198524475, -34.86114501953125, 3.5229997634887695
640, 2425251324, 178.54180908203125, -47.174198150634766, 129.39149475097656, -0.49231634, 0.07179415, -0.47339725, 2.090315580368042, -33.05188751220703, 4.497767448425293
641, 2425301325, 178.68899536132812, -45.588191986083984, 129.1634063720703, -0.6164977, 0.19463821, 0.867383, -0.14819976687431335, -31.474721908569336, 2.96650767326355
642, 2425351326, 178.63278198242188, -45.89663314819336, 129.21531677246094, -0.021591129, -0.40125638, -0.09123993, -0.17063626646995544, 6.495193958282471, 0.005854642949998379
643, 2425401327, 178.38311767578125, -45.43666076660156, 129.4337615966797, -0.01276706, -0.8686088, -0.92375374, -1.6567405462265015, -8.80444049835205, -2.707137107849121
644, 2425451328, 178.31671142578125, -43.89955139160156, 129.43087768554688, 0.6702349, -0.78512055, -0.28831577, -1.1584620475769043, -30.416345596313477, -0.2603479027748108
645, 2425501329, 178.12060546875, -42.355735778808594, 129.52084350585938, 0.027293837, -0.3802265, 1.0275841, -2.484591007232666, -30.504301071166992, -1.689156413078308
646, 2425551330, 178.0894012451172, -41.81494903564453, 129.5894775390625, -0.0036790234, -0.6034177, 0.3566332, 0.5037330389022827, -10.45909595489502, -0.7936164736747742
647, 2425601331, 178.06028747558594, -41.32609558105469, 129.65670776367188, 0.062008753, -0.6449676, 0.3310833, 0.5177728533744812, -9.419784545898438, -0.7516494989395142
648, 2425651332, 178.34561157226562, -41.056915283203125, 129.4982452392578, 0.75859725, -0.6604048, -0.3486576, 3.826331853866577, -5.136254787445068, 2.7967467308044434
649, 2425701333, 178.41815185546875, -40.093971252441406, 129.44541931152344, 0.10151467, -0.46603322, -0.08000088, 0.9691529273986816, -18.951799392700195, 0.8417068719863892
650, 2425751334, 178.59579467773438, -40.00955581665039, 129.37091064453125, 0.38242775, -0.2839294, -0.6185217, 2.7999579906463623, -1.3955084085464478, 1.679184079170227
651, 2425801335, 178.55332946777344, -39.19123077392578, 129.38523864746094, 0.42253044, 0.08335134, -0.48027897, -0.4596919119358063, -16.032442092895508, -0.04428898170590401
652, 2425851336, 178.65025329589844, -37.93491744995117, 129.33848571777344, 0.3376228, 0.2779454, -0.35837555, 1.5623304843902588, -24.81178092956543, 0.7018592953681946
653, 2425901337, 178.468994140625, -36.082157135009766, 129.44598388671875, -0.14423716, 0.7852871, 0.5634594, -2.12374210357666, -36.675392150878906, -2.0619828701019287
654, 2425951338, 178.71401977539062, -35.60206604003906, 129.31289672851562, 0.13819404, 0.40598145, -0.012459755, 3.5498523712158203, -9.32978343963623, 2.5075058937072754
655, 2426001339, 179.03016662597656, -34.56130599975586, 129.13015747070312, -0.009768858, 0.23940618, 0.07670593, 4.4316301345825195, -20.548044204711914, 3.16759991645813
656, 2426051340, 179.43545532226562, -33.49182891845703, 128.86593627929688, -0.33222854, 0.39862216, 0.39778614, 5.356922626495361, -21.124553680419922, 4.680912017822266
657, 2426101341, 179.643310546875, -32.818153381347656, 128.7392578125, -0.40197554, -0.10595453, 0.2043848, 2.9809110164642334, -13.169991493225098, 2.6002190113067627
658, 2426151342, 179.89788818359375, -32.74491882324219, 128.7603759765625, 0.42275614, -2.385489, -1.0616264, 5.526185989379883, -1.143036127090454, 0.22567583620548248
659, 2426201343, -179.7874755859375, -31.613847732543945, 128.9010467529297, -0.8094209, 0.59188485, -1.9086242, 7.996437072753906, -22.3002986907959, -1.7741976976394653
660, 2426251344, -179.3499755859375, -31.01753807067871, 129.0557861328125, -0.79191935, 1.7852733, -2.0698118, 10.563916206359863, -11.622673034667969, -1.9691200256347656
661, 2426301345, -179.07769775390625, -30.078548431396484, 129.2786102294922, -0.93713665, 1.7514234, -0.7025099, 7.917686939239502, -18.509540557861328, -2.995832920074463
662, 2426351346, -179.07846069335938, -31.24175262451172, 129.8656005859375, 4.291755, -2.5674827, -4.04377, 6.171110153198242, 23.420957565307617, -9.885101318359375
663, 2426401347, -179.1066436767578, -30.45205307006836, 129.66925048828125, -0.64632636, 1.3680904, -7.544305, -2.3767755031585693, -15.400862693786621, 4.209906101226807
664, 2426451348, -178.94273376464844, -29.614652633666992, 129.437744140625, -0.6793905, 1.1953521, -7.9166703, 1.1605350971221924, -16.34062385559082, 4.880796432495117
665, 2426501349, -179.2423553466797, -29.244571685791016, 129.6443328857422, 0.002232224, 1.1922374, -3.799478, -3.7654125690460205, -7.124914646148682, -2.892068862915039
666, 2426551350, -179.23635864257812, -30.278949737548828, 129.88186645507812, 0.92370874, 0.6217882, -3.3786592, 2.681105852127075, 20.96078872680664, -3.8109817504882812
667, 2426601351, -179.19534301757812, -30.41857147216797, 129.73687744140625, -1.0363914, 2.437129, -3.0495749, -0.43857505917549133, 3.1618449687957764, 3.050907850265503
668, 2426651352, -179.0690155029297, -29.26865577697754, 129.7420654296875, 0.42692697, -0.85570925, 1.1144876, 2.7830874919891357, -22.66145896911621, 0.8455232381820679
669, 2426701353, -179.0358123779297, -28.696022033691406, 129.70433044433594, 0.91093177, -2.4177647, -0.40437412, 0.5029990673065186, -11.104747772216797, 1.4366666078567505
670, 2426751354, -179.2444610595703, -27.941917419433594, 129.94046020507812, 0.94535756, -0.9761388, 0.53760815, -1.732442855834961, -14.805550575256348, -3.3422257900238037
671, 2426801355, -179.44158935546875, -27.210433959960938, 130.0692901611328, -0.11198178, -0.1894165, 0.91879654, -2.5451292991638184, -14.318268775939941, -1.5280852317810059
672, 2426851356, -179.2991943359375, -26.651508331298828, 129.97738647460938, 0.25329515, -0.048529357, 0.6831684, 2.2201411724090576, -10.823004722595215, 2.349635362625122
673, 2426901357, -179.2532958984375, -26.21230697631836, 129.97288513183594, -0.08258491, 0.2024263, 0.4524355, 1.0829052925109863, -8.445631980895996, 0.7799233794212341
674, 2426951358, -179.17855834960938, -26.905916213989258, 129.95448303222656, 0.53843945, -0.8033133, -0.8642149, 1.5356509685516357, 14.210986137390137, 0.7280092835426331
675, 2427001359, -179.3861846923828, -25.98238182067871, 130.11497497558594, -0.024152922, -0.20182103, -0.5101547, -2.51680326461792, -18.167461395263672, -2.05365252494812
676, 2427051360, -179.42022705078125, -25.63900375366211, 130.15704345703125, 0.34733376, -0.5959578, -0.7780371, -0.10868335515260696, -6.537487030029297, -0.09703382104635239
677, 2427101361, -179.56149291992188, -24.35324478149414, 130.26145935058594, -0.39197958, 0.5575605, 0.5629139, -1.738429307937622, -25.39177131652832, -1.074841856956482
678, 2427151362, -179.487060546875, -24.49930191040039, 130.20089721679688, 0.7570565, 0.3835213, 0.6359186, 1.1926151514053345, 3.267697334289551, 1.6674706935882568
679, 2427201363, -179.6905517578125, -24.236143112182617, 130.3613739013672, -0.28921682, 1.2512566, -0.3274021, -2.540219306945801, -4.945971488952637, -2.2965140342712402
680, 2427251364, -179.63575744628906, -25.018875122070312, 130.35202026367188, -0.051032033, 1.1432788, 6.6820354, 1.2231186628341675, 15.992647171020508, 0.6674296855926514
681, 2427301365, -179.70587158203125, -24.23252296447754, 130.42486572265625, -1.2706974, 1.4039785, -1.3301773, -0.5885331034660339, -15.395866394042969, -0.6444929838180542
682, 2427351366, -179.6273193359375, -24.433969497680664, 130.41497802734375, 0.47479975, 0.06109425, -0.5904169, 1.6957731246948242, 4.367537975311279, 0.7456480264663696
683, 2427401367, -179.45982360839844, -25.066368103027344, 130.37620544433594, 0.061289825, 0.4462721, -0.34723663, 3.2308273315429688, 12.991416931152344, 1.1940557956695557
